Model,TBS1102C
Firmware Version,v2015-08-04-prequal4ch70_v1.3

Point Format,Y
Horizontal Units,S
Horizontal Scale,4e-06
Sample Interval,3.2e-08
Filter Frequency,2e+08
Record Length,2000
Gating,0.0% to 100.0%
Probe Attenuation,1
Vertical Units,V
Vertical Offset,0
Vertical Scale,0.0073
Label,
TIME,CH1
-4.256e-06,-0.0444239
-4.224e-06,-0.0443532
-4.192e-06,-0.0443543
-4.160e-06,-0.0444764
-4.128e-06,-0.0443703
-4.096e-06,-0.0443441
-4.064e-06,-0.0444901
-4.032e-06,-0.0444091
-4.000e-06,-0.0443555
-3.968e-06,-0.0444718
-3.936e-06,-0.0444091
-3.904e-06,-0.0443794
-3.872e-06,-0.0444867
-3.840e-06,-0.0444
-3.808e-06,-0.0444308
-3.776e-06,-0.0444604
-3.744e-06,-0.0445882
-3.712e-06,-0.0445277
-3.680e-06,-0.0445243
-3.648e-06,-0.0444
-3.616e-06,-0.0444638
-3.584e-06,-0.0444935
-3.552e-06,-0.0444559
-3.520e-06,-0.0445562
-3.488e-06,-0.0444502
-3.456e-06,-0.044481
-3.424e-06,-0.0444935
-3.392e-06,-0.0444889
-3.360e-06,-0.0446133
-3.328e-06,-0.0445893
-3.296e-06,-0.0444513
-3.264e-06,-0.0445608
-3.232e-06,-0.0445403
-3.200e-06,-0.0445688
-3.168e-06,-0.0446771
-3.136e-06,-0.0445152
-3.104e-06,-0.0445642
-3.072e-06,-0.0445243
-3.040e-06,-0.0445243
-3.008e-06,-0.0446395
-2.976e-06,-0.0445984
-2.944e-06,-0.044627
-2.912e-06,-0.0446087
-2.880e-06,-0.0446338
-2.848e-06,-0.0446897
-2.816e-06,-0.0446794
-2.784e-06,-0.0445676
-2.752e-06,-0.0447216
-2.720e-06,-0.0446897
-2.688e-06,-0.0446372
-2.656e-06,-0.0447444
-2.624e-06,-0.0447136
-2.592e-06,-0.0446486
-2.560e-06,-0.0447809
-2.528e-06,-0.0447353
-2.496e-06,-0.0447456
-2.464e-06,-0.0447627
-2.432e-06,-0.0447102
-2.400e-06,-0.0447844
-2.368e-06,-0.0448129
-2.336e-06,-0.0448596
-2.304e-06,-0.0448003
-2.272e-06,-0.0447798
-2.240e-06,-0.0447524
-2.208e-06,-0.044822
-2.176e-06,-0.0448106
-2.144e-06,-0.0449155
-2.112e-06,-0.0449452
-2.080e-06,-0.0447901
-2.048e-06,-0.0449212
-2.016e-06,-0.0448243
-1.984e-06,-0.0449566
-1.952e-06,-0.0449212
-1.920e-06,-0.0449087
-1.888e-06,-0.0449703
-1.856e-06,-0.0449247
-1.824e-06,-0.0449224
-1.792e-06,-0.0450102
-1.760e-06,-0.0449817
-1.728e-06,-0.0450022
-1.696e-06,-0.044919
-1.664e-06,-0.0449418
-1.632e-06,-0.0449669
-1.600e-06,-0.044919
-1.568e-06,-0.0449155
-1.536e-06,-0.0450467
-1.504e-06,-0.0450091
-1.472e-06,-0.0449167
-1.440e-06,-0.0450752
-1.408e-06,-0.0449897
-1.376e-06,-0.0450387
-1.344e-06,-0.0450627
-1.312e-06,-0.0449555
-1.280e-06,-0.0450547
-1.248e-06,-0.0448939
-1.216e-06,-0.0449087
-1.184e-06,-0.0449805
-1.152e-06,-0.0449326
-1.120e-06,-0.0449577
-1.088e-06,-0.0449133
-1.056e-06,-0.0448756
-1.024e-06,-0.0449338
-9.920e-07,-0.044822
-9.600e-07,-0.0448129
-9.280e-07,-0.045025
-8.960e-07,-0.0448608
-8.640e-07,-0.0448425
-8.320e-07,-0.0448596
-8.000e-07,-0.0448197
-7.680e-07,-0.0448733
-7.360e-07,-0.0449281
-7.040e-07,-0.0447787
-6.720e-07,-0.044903
-6.400e-07,-0.0448642
-6.080e-07,-0.0448505
-5.760e-07,-0.0448768
-5.440e-07,-0.0449064
-5.120e-07,-0.0448642
-4.800e-07,-0.044773
-4.480e-07,-0.0448562
-4.160e-07,-0.0447673
-3.840e-07,-0.0449828
-3.520e-07,-0.0448368
-3.200e-07,-0.0448927
-2.880e-07,-0.0448585
-2.560e-07,-0.0447091
-2.240e-07,-0.0449566
-1.920e-07,-0.0449087
-1.600e-07,-0.0447102
-1.280e-07,-0.0448745
-9.600e-08,-0.0448893
-6.400e-08,-0.0456455
-3.200e-08,-0.0440008
-1.613e-20,-0.0469664
3.200e-08,-0.0445893
6.400e-08,-0.0451904
9.600e-08,-0.0444707
1.280e-07,-0.0451881
1.600e-07,-0.0447057
1.920e-07,-0.0450079
2.240e-07,-0.0448859
2.560e-07,-0.0447615
2.880e-07,-0.0450239
3.200e-07,-0.0448277
3.520e-07,-0.0448859
3.840e-07,-0.0449577
4.160e-07,-0.0449247
4.480e-07,-0.0450182
4.800e-07,-0.0450205
5.120e-07,-0.0450102
5.440e-07,-0.0449988
5.760e-07,-0.0450136
6.080e-07,-0.045195
6.400e-07,-0.0452246
6.720e-07,-0.0452258
7.040e-07,-0.045236
7.360e-07,-0.0451904
7.680e-07,-0.0452737
8.000e-07,-0.0452828
8.320e-07,-0.045357
8.640e-07,-0.0453353
8.960e-07,-0.0453113
9.280e-07,-0.0453604
9.600e-07,-0.0453433
9.920e-07,-0.0454596
1.024e-06,-0.0453604
1.056e-06,-0.045487
1.088e-06,-0.0453421
1.120e-06,-0.0453113
1.152e-06,-0.0453444
1.184e-06,-0.0454357
1.216e-06,-0.0455087
1.248e-06,-0.0453398
1.280e-06,-0.0453855
1.312e-06,-0.0453056
1.344e-06,-0.0452532
1.376e-06,-0.0452623
1.408e-06,-0.0452281
1.440e-06,-0.0452315
1.472e-06,-0.0452258
1.504e-06,-0.0451859
1.536e-06,-0.045163
1.568e-06,-0.0452189
1.600e-06,-0.0450798
1.632e-06,-0.0451197
1.664e-06,-0.0451197
1.696e-06,-0.0450364
1.728e-06,-0.0451083
1.760e-06,-0.0451448
1.792e-06,-0.0450022
1.824e-06,-0.0450034
1.856e-06,-0.0450113
1.888e-06,-0.0449281
1.920e-06,-0.0450091
1.952e-06,-0.0450547
1.984e-06,-0.0449041
2.016e-06,-0.0449954
2.048e-06,-0.0450148
2.080e-06,-0.0449269
2.112e-06,-0.0450764
2.144e-06,-0.0449498
2.176e-06,-0.0449281
2.208e-06,-0.0450421
2.240e-06,-0.0450125
2.272e-06,-0.045098
2.304e-06,-0.0451037
2.336e-06,-0.0450809
2.368e-06,-0.0450045
2.400e-06,-0.0451277
2.432e-06,-0.0450159
2.464e-06,-0.0451151
2.496e-06,-0.0450285
2.528e-06,-0.0450113
2.560e-06,-0.045041
2.592e-06,-0.045049
2.624e-06,-0.0450478
2.656e-06,-0.0451197
2.688e-06,-0.0449726
2.720e-06,-0.0450729
2.752e-06,-0.0451448
2.784e-06,-0.0450729
2.816e-06,-0.0451311
2.848e-06,-0.0451151
2.880e-06,-0.045138
2.912e-06,-0.0450478
2.944e-06,-0.0450387
2.976e-06,-0.0450752
3.008e-06,-0.0451277
3.040e-06,-0.0450125
3.072e-06,-0.0450718
3.104e-06,-0.0450285
3.136e-06,-0.0451345
3.168e-06,-0.0450843
3.200e-06,-0.0451505
3.232e-06,-0.0450729
3.264e-06,-0.0451163
3.296e-06,-0.0451186
3.328e-06,-0.0450205
3.360e-06,-0.0451528
3.392e-06,-0.0450752
3.424e-06,-0.0450467
3.456e-06,-0.0450912
3.488e-06,-0.0450113
3.520e-06,-0.0450969
3.552e-06,-0.045025
3.584e-06,-0.0451037
3.616e-06,-0.0451026
3.648e-06,-0.044976
3.680e-06,-0.0450775
3.712e-06,-0.0450296
3.744e-06,-0.0451243
3.776e-06,-0.0450193
3.808e-06,-0.0450433
3.840e-06,-0.0450912
3.872e-06,-0.0451516
3.904e-06,-0.0451368
3.936e-06,-0.0450558
3.968e-06,-0.0450102
4.000e-06,-0.0451516
4.032e-06,-0.0451026
4.064e-06,-0.0451391
4.096e-06,-0.045065
4.128e-06,-0.0451037
4.160e-06,-0.0450501
4.192e-06,-0.0451174
4.224e-06,-0.0449817
4.256e-06,-0.0451117
4.288e-06,-0.0450821
4.320e-06,-0.0451231
4.352e-06,-0.0451767
4.384e-06,-0.0450752
4.416e-06,-0.0452041
4.448e-06,-0.0451311
4.480e-06,-0.0450205
4.512e-06,-0.0451528
4.544e-06,-0.045187
4.576e-06,-0.045211
4.608e-06,-0.045138
4.640e-06,-0.0452919
4.672e-06,-0.0451402
4.704e-06,-0.0451779
4.736e-06,-0.0452132
4.768e-06,-0.0451562
4.800e-06,-0.0451881
4.832e-06,-0.0451973
4.864e-06,-0.0452383
4.896e-06,-0.0452224
4.928e-06,-0.0451881
4.960e-06,-0.0451767
4.992e-06,-0.0452657
5.024e-06,-0.0450764
5.056e-06,-0.0451288
5.088e-06,-0.0452064
5.120e-06,-0.045236
5.152e-06,-0.0451094
5.184e-06,-0.0451847
5.216e-06,-0.0450969
5.248e-06,-0.0450376
5.280e-06,-0.0450353
5.312e-06,-0.0449908
5.344e-06,-0.0451003
5.376e-06,-0.0450456
5.408e-06,-0.0450615
5.440e-06,-0.0450889
5.472e-06,-0.0450125
5.504e-06,-0.0450159
5.536e-06,-0.0449064
5.568e-06,-0.0449532
5.600e-06,-0.0450421
5.632e-06,-0.0449338
5.664e-06,-0.0449418
5.696e-06,-0.0449874
5.728e-06,-0.0450034
5.760e-06,-0.04483
5.792e-06,-0.0450695
5.824e-06,-0.045049
5.856e-06,-0.0449748
5.888e-06,-0.0450125
5.920e-06,-0.0449851
5.952e-06,-0.0450501
5.984e-06,-0.0450307
6.016e-06,-0.045041
6.048e-06,-0.0450342
6.080e-06,-0.0450843
6.112e-06,-0.0450216
6.144e-06,-0.0449851
6.176e-06,-0.0451494
6.208e-06,-0.0450205
6.240e-06,-0.0449212
6.272e-06,-0.0450136
6.304e-06,-0.0449691
6.336e-06,-0.0449429
6.368e-06,-0.0449133
6.400e-06,-0.0449224
6.432e-06,-0.0449007
6.464e-06,-0.0448642
6.496e-06,-0.0448802
6.528e-06,-0.0448403
6.560e-06,-0.0449053
6.592e-06,-0.0447273
6.624e-06,-0.0447501
6.656e-06,-0.0449075
6.688e-06,-0.0446931
6.720e-06,-0.0448688
6.752e-06,-0.0448802
6.784e-06,-0.0446623
6.816e-06,-0.044725
6.848e-06,-0.0447809
6.880e-06,-0.0447456
6.912e-06,-0.044871
6.944e-06,-0.0448209
6.976e-06,-0.044838
7.008e-06,-0.0448551
7.040e-06,-0.044822
7.072e-06,-0.0449155
7.104e-06,-0.0449623
7.136e-06,-0.0449395
7.168e-06,-0.0449714
7.200e-06,-0.0450307
7.232e-06,-0.0449007
7.264e-06,-0.0451037
7.296e-06,-0.0449144
7.328e-06,-0.0450695
7.360e-06,-0.0450786
7.392e-06,-0.0450718
7.424e-06,-0.0451197
7.456e-06,-0.0451562
7.488e-06,-0.0450832
7.520e-06,-0.0452691
7.552e-06,-0.0450364
7.584e-06,-0.0450935
7.616e-06,-0.0452018
7.648e-06,-0.0450832
7.680e-06,-0.0451995
7.712e-06,-0.0451015
7.744e-06,-0.0451619
7.776e-06,-0.0451448
7.808e-06,-0.0450353
7.840e-06,-0.045106
7.872e-06,-0.044968
7.904e-06,-0.0450935
7.936e-06,-0.0450707
7.968e-06,-0.0449338
8.000e-06,-0.0449326
8.032e-06,-0.0449646
8.064e-06,-0.0449281
8.096e-06,-0.0449133
8.128e-06,-0.044879
8.160e-06,-0.044871
8.192e-06,-0.0448562
8.224e-06,-0.0448699
8.256e-06,-0.0448665
8.288e-06,-0.0448984
8.320e-06,-0.0448722
8.352e-06,-0.0447308
8.384e-06,-0.0448345
8.416e-06,-0.0447558
8.448e-06,-0.0447661
8.480e-06,-0.0448209
8.512e-06,-0.0447889
8.544e-06,-0.0448209
8.576e-06,-0.0447604
8.608e-06,-0.0447422
8.640e-06,-0.0448106
8.672e-06,-0.0447889
8.704e-06,-0.0447558
8.736e-06,-0.0447399
8.768e-06,-0.0447456
8.800e-06,-0.04483
8.832e-06,-0.044871
8.864e-06,-0.0447615
8.896e-06,-0.0446897
8.928e-06,-0.0447501
8.960e-06,-0.0447273
8.992e-06,-0.0449007
9.024e-06,-0.0447376
9.056e-06,-0.0448026
9.088e-06,-0.044903
9.120e-06,-0.0446692
9.152e-06,-0.0448437
9.184e-06,-0.0447718
9.216e-06,-0.0447821
9.248e-06,-0.0448802
9.280e-06,-0.0448539
9.312e-06,-0.0448425
9.344e-06,-0.0448768
9.376e-06,-0.0448266
9.408e-06,-0.0447034
9.440e-06,-0.0448813
9.472e-06,-0.0448277
9.504e-06,-0.0448403
9.536e-06,-0.0449133
9.568e-06,-0.044895
9.600e-06,-0.0447707
9.632e-06,-0.044984
9.664e-06,-0.0448528
9.696e-06,-0.0448973
9.728e-06,-0.0450764
9.760e-06,-0.0448996
9.792e-06,-0.0448152
9.824e-06,-0.0449669
9.856e-06,-0.0449566
9.888e-06,-0.0449646
9.920e-06,-0.0450387
9.952e-06,-0.0448231
9.984e-06,-0.0449121
1.002e-05,-0.0449304
1.005e-05,-0.044944
1.008e-05,-0.0449383
1.011e-05,-0.0448768
1.014e-05,-0.0448859
1.018e-05,-0.0448494
1.021e-05,-0.0449612
1.024e-05,-0.0448528
1.027e-05,-0.0449087
1.030e-05,-0.0450444
1.034e-05,-0.0447695
1.037e-05,-0.0449315
1.040e-05,-0.0449543
1.043e-05,-0.0448608
1.046e-05,-0.0448904
1.050e-05,-0.0450182
1.053e-05,-0.0448619
1.056e-05,-0.0449258
1.059e-05,-0.045065
1.062e-05,-0.0450011
1.066e-05,-0.0450159
1.069e-05,-0.0449532
1.072e-05,-0.0450011
1.075e-05,-0.0450296
1.078e-05,-0.0450273
1.082e-05,-0.0450113
1.085e-05,-0.0450022
1.088e-05,-0.0450752
1.091e-05,-0.0451847
1.094e-05,-0.0450889
1.098e-05,-0.0450307
1.101e-05,-0.0450684
1.104e-05,-0.0450068
1.107e-05,-0.0450878
1.110e-05,-0.0451334
1.114e-05,-0.0450707
1.117e-05,-0.0451722
1.120e-05,-0.0450456
1.123e-05,-0.0450216
1.126e-05,-0.0450296
1.130e-05,-0.0450889
1.133e-05,-0.0450193
1.136e-05,-0.0450809
1.139e-05,-0.0450034
1.142e-05,-0.0451539
1.146e-05,-0.0450193
1.149e-05,-0.0450216
1.152e-05,-0.0450695
1.155e-05,-0.0449338
1.158e-05,-0.045049
1.162e-05,-0.045252
1.165e-05,-0.0450205
1.168e-05,-0.0450615
1.171e-05,-0.0451357
1.174e-05,-0.0450923
1.178e-05,-0.0450136
1.181e-05,-0.0450478
1.184e-05,-0.045114
1.187e-05,-0.045065
1.190e-05,-0.0451459
1.194e-05,-0.0451357
1.197e-05,-0.0449247
1.200e-05,-0.0451494
1.203e-05,-0.0450399
1.206e-05,-0.045041
1.210e-05,-0.04496
1.213e-05,-0.0451277
1.216e-05,-0.0450513
1.219e-05,-0.0450285
1.222e-05,-0.0449235
1.226e-05,-0.0450342
1.229e-05,-0.0449395
1.232e-05,-0.0449247
1.235e-05,-0.0451368
1.238e-05,-0.0450456
1.242e-05,-0.0450946
1.245e-05,-0.044992
1.248e-05,-0.0450718
1.251e-05,-0.0449748
1.254e-05,-0.0450342
1.258e-05,-0.0450547
1.261e-05,-0.045065
1.264e-05,-0.0450695
1.267e-05,-0.0450695
1.270e-05,-0.0451106
1.274e-05,-0.0450136
1.277e-05,-0.0451231
1.280e-05,-0.0451243
1.283e-05,-0.0450889
1.286e-05,-0.045195
1.290e-05,-0.0451596
1.293e-05,-0.0451767
1.296e-05,-0.0451938
1.299e-05,-0.0451505
1.302e-05,-0.0451129
1.306e-05,-0.0452805
1.309e-05,-0.0452862
1.312e-05,-0.0451722
1.315e-05,-0.0453307
1.318e-05,-0.04526
1.322e-05,-0.0452338
1.325e-05,-0.0452668
1.328e-05,-0.0453193
1.331e-05,-0.0451551
1.334e-05,-0.0452189
1.338e-05,-0.0452623
1.341e-05,-0.0452771
1.344e-05,-0.0453307
1.347e-05,-0.0452919
1.350e-05,-0.045244
1.354e-05,-0.0452269
1.357e-05,-0.0452429
1.360e-05,-0.0451984
1.363e-05,-0.045317
1.366e-05,-0.0451961
1.370e-05,-0.0452144
1.373e-05,-0.0451733
1.376e-05,-0.0451494
1.379e-05,-0.0451368
1.382e-05,-0.0451037
1.386e-05,-0.0451653
1.389e-05,-0.0450821
1.392e-05,-0.0451676
1.395e-05,-0.0451471
1.398e-05,-0.0451459
1.402e-05,-0.0451254
1.405e-05,-0.0451402
1.408e-05,-0.0450524
1.411e-05,-0.0451482
1.414e-05,-0.0450444
1.418e-05,-0.0452509
1.421e-05,-0.0450593
1.424e-05,-0.0451026
1.427e-05,-0.0452338
1.430e-05,-0.0452155
1.434e-05,-0.0451334
1.437e-05,-0.0452817
1.440e-05,-0.0451391
1.443e-05,-0.0452657
1.446e-05,-0.0453421
1.450e-05,-0.0452725
1.453e-05,-0.0453045
1.456e-05,-0.0453353
1.459e-05,-0.0453262
1.462e-05,-0.045325
1.466e-05,-0.0454596
1.469e-05,-0.0453729
1.472e-05,-0.0455326
1.475e-05,-0.0454687
1.478e-05,-0.0454345
1.482e-05,-0.0455611
1.485e-05,-0.0454665
1.488e-05,-0.0455372
1.491e-05,-0.0455543
1.494e-05,-0.0454824
1.498e-05,-0.0455497
1.501e-05,-0.0455395
1.504e-05,-0.0454471
1.507e-05,-0.0457493
1.510e-05,-0.0454528
1.514e-05,-0.0453957
1.517e-05,-0.0455338
1.520e-05,-0.0454881
1.523e-05,-0.0455223
1.526e-05,-0.0456239
1.530e-05,-0.0453935
1.533e-05,-0.0455155
1.536e-05,-0.0455919
1.539e-05,-0.0453592
1.542e-05,-0.0454334
1.546e-05,-0.0453661
1.549e-05,-0.045236
1.552e-05,-0.0454334
1.555e-05,-0.0455235
1.558e-05,-0.0453136
1.562e-05,-0.0452988
1.565e-05,-0.0451733
1.568e-05,-0.0453148
1.571e-05,-0.0452224
1.574e-05,-0.0454493
1.578e-05,-0.0454117
1.581e-05,-0.0452075
1.584e-05,-0.0452771
1.587e-05,-0.045244
1.590e-05,-0.045252
1.594e-05,-0.0453649
1.597e-05,-0.0452783
1.600e-05,-0.0452418
1.603e-05,-0.0453262
1.606e-05,-0.0451995
1.610e-05,-0.0453535
1.613e-05,-0.0452737
1.616e-05,-0.0452372
1.619e-05,-0.0453421
1.622e-05,-0.0453364
1.626e-05,-0.0453205
1.629e-05,-0.0453182
1.632e-05,-0.045349
1.635e-05,-0.0453033
1.638e-05,-0.0453056
1.642e-05,-0.0454037
1.645e-05,-0.0453387
1.648e-05,-0.0452908
1.651e-05,-0.0453558
1.654e-05,-0.0453273
1.658e-05,-0.0453718
1.661e-05,-0.0453581
1.664e-05,-0.045528
1.667e-05,-0.0452554
1.670e-05,-0.0453478
1.674e-05,-0.0455064
1.677e-05,-0.0453946
1.680e-05,-0.0454208
1.683e-05,-0.0455018
1.686e-05,-0.04543
1.690e-05,-0.0453615
1.693e-05,-0.0454767
1.696e-05,-0.0453957
1.699e-05,-0.0454197
1.702e-05,-0.0454642
1.706e-05,-0.0453273
1.709e-05,-0.0453501
1.712e-05,-0.0453604
1.715e-05,-0.0453752
1.718e-05,-0.0453957
1.722e-05,-0.0453148
1.725e-05,-0.045317
1.728e-05,-0.0453193
1.731e-05,-0.0453045
1.734e-05,-0.045341
1.738e-05,-0.0452634
1.741e-05,-0.04526
1.744e-05,-0.0452041
1.747e-05,-0.0452075
1.750e-05,-0.0452714
1.754e-05,-0.0452611
1.757e-05,-0.0451083
1.760e-05,-0.0451573
1.763e-05,-0.0451368
1.766e-05,-0.0451573
1.770e-05,-0.0452075
1.773e-05,-0.0451163
1.776e-05,-0.0450513
1.779e-05,-0.0451528
1.782e-05,-0.0451516
1.786e-05,-0.0450935
1.789e-05,-0.0451699
1.792e-05,-0.0451015
1.795e-05,-0.0451231
1.798e-05,-0.0451779
1.802e-05,-0.0451208
1.805e-05,-0.0451619
1.808e-05,-0.0451813
1.811e-05,-0.0452007
1.814e-05,-0.0452064
1.818e-05,-0.0451585
1.821e-05,-0.0452554
1.824e-05,-0.0452497
1.827e-05,-0.0450672
1.830e-05,-0.0451984
1.834e-05,-0.0452999
1.837e-05,-0.0453056
1.840e-05,-0.0453079
1.843e-05,-0.0452942
1.846e-05,-0.045284
1.850e-05,-0.0452885
1.853e-05,-0.0451904
1.856e-05,-0.0453387
1.859e-05,-0.045341
1.862e-05,-0.0453376
1.866e-05,-0.0451653
1.869e-05,-0.0452303
1.872e-05,-0.0452589
1.875e-05,-0.0453444
1.878e-05,-0.0452395
1.882e-05,-0.0452851
1.885e-05,-0.0452566
1.888e-05,-0.0452668
1.891e-05,-0.0453615
1.894e-05,-0.0452497
1.898e-05,-0.045236
1.901e-05,-0.045187
1.904e-05,-0.0450478
1.907e-05,-0.0452121
1.910e-05,-0.0452817
1.914e-05,-0.0452303
1.917e-05,-0.0451151
1.920e-05,-0.0452794
1.923e-05,-0.0451505
1.926e-05,-0.0452132
1.930e-05,-0.0452748
1.933e-05,-0.0451699
1.936e-05,-0.0450786
1.939e-05,-0.0452931
1.942e-05,-0.0450923
1.946e-05,-0.045171
1.949e-05,-0.0452189
1.952e-05,-0.0450752
1.955e-05,-0.0451847
1.958e-05,-0.0451927
1.962e-05,-0.0451323
1.965e-05,-0.0452611
1.968e-05,-0.045211
1.971e-05,-0.0451562
1.974e-05,-0.0452155
1.978e-05,-0.0451995
1.981e-05,-0.045357
1.984e-05,-0.0453353
1.987e-05,-0.0451516
1.990e-05,-0.0452976
1.994e-05,-0.0452144
1.997e-05,-0.0454163
2.000e-05,-0.0454277
2.003e-05,-0.0453102
2.006e-05,-0.0453068
2.010e-05,-0.0453775
2.013e-05,-0.0452452
2.016e-05,-0.0453786
2.019e-05,-0.0453786
2.022e-05,-0.0452668
2.026e-05,-0.0453969
2.029e-05,-0.0453478
2.032e-05,-0.0453068
2.035e-05,-0.0454459
2.038e-05,-0.0454094
2.042e-05,-0.0453501
2.045e-05,-0.0454642
2.048e-05,-0.0454197
2.051e-05,-0.0454322
2.054e-05,-0.0454311
2.058e-05,-0.0455018
2.061e-05,-0.04543
2.064e-05,-0.0453513
2.067e-05,-0.0454516
2.070e-05,-0.0455611
2.074e-05,-0.0455497
2.077e-05,-0.0454277
2.080e-05,-0.0454208
2.083e-05,-0.0456045
2.086e-05,-0.0455338
2.090e-05,-0.045552
2.093e-05,-0.0454265
2.096e-05,-0.045398
2.099e-05,-0.0456216
2.102e-05,-0.045625
2.106e-05,-0.0456341
2.109e-05,-0.0455623
2.112e-05,-0.0455817
2.115e-05,-0.0455474
2.118e-05,-0.0456102
2.122e-05,-0.0456524
2.125e-05,-0.045609
2.128e-05,-0.0457174
2.131e-05,-0.0455976
2.134e-05,-0.0456991
2.138e-05,-0.045568
2.141e-05,-0.0456843
2.144e-05,-0.0457505
2.147e-05,-0.045755
2.150e-05,-0.0458292
2.154e-05,-0.045763
2.157e-05,-0.0458303
2.160e-05,-0.0457756
2.163e-05,-0.0457733
2.166e-05,-0.0458588
2.170e-05,-0.0458178
2.173e-05,-0.0457961
2.176e-05,-0.0458702
2.179e-05,-0.0458725
2.182e-05,-0.0458805
2.186e-05,-0.0458497
2.189e-05,-0.0458953
2.192e-05,-0.0458429
2.195e-05,-0.0459307
2.198e-05,-0.0459307
2.202e-05,-0.0458725
2.205e-05,-0.0459718
2.208e-05,-0.0459934
2.211e-05,-0.0460174
2.214e-05,-0.0460653
2.218e-05,-0.0460607
2.221e-05,-0.0460733
2.224e-05,-0.0461896
2.227e-05,-0.0462672
2.230e-05,-0.0462991
2.234e-05,-0.0463208
2.237e-05,-0.0462546
2.240e-05,-0.046331
2.243e-05,-0.0464212
2.246e-05,-0.0464634
2.250e-05,-0.0465067
2.253e-05,-0.0465923
2.256e-05,-0.0465569
2.259e-05,-0.0466607
2.262e-05,-0.0468306
2.266e-05,-0.0468363
2.269e-05,-0.0468843
2.272e-05,-0.0469527
2.275e-05,-0.0468843
2.278e-05,-0.0471033
2.282e-05,-0.0471854
2.285e-05,-0.047158
2.288e-05,-0.0473143
2.291e-05,-0.0472207
2.294e-05,-0.0472721
2.298e-05,-0.0475264
2.301e-05,-0.0476063
2.304e-05,-0.0476051
2.307e-05,-0.0477431
2.310e-05,-0.0477705
2.314e-05,-0.0478629
2.317e-05,-0.0479952
2.320e-05,-0.048156
2.323e-05,-0.0481173
2.326e-05,-0.0481538
2.330e-05,-0.0483089
2.333e-05,-0.048391
2.336e-05,-0.048545
2.339e-05,-0.0486009
2.342e-05,-0.0486214
2.346e-05,-0.0487754
2.349e-05,-0.0487127
2.352e-05,-0.0489533
2.355e-05,-0.0491039
2.358e-05,-0.0489545
2.362e-05,-0.0492944
2.365e-05,-0.0493252
2.368e-05,-0.0492955
2.371e-05,-0.0496081
2.374e-05,-0.0496662
2.378e-05,-0.0496218
2.381e-05,-0.0498658
2.384e-05,-0.0500791
2.387e-05,-0.0500369
2.390e-05,-0.050232
2.394e-05,-0.0502571
2.397e-05,-0.0503689
2.400e-05,-0.0506232
2.403e-05,-0.0506951
2.406e-05,-0.0508126
2.410e-05,-0.0508548
2.413e-05,-0.0510202
2.416e-05,-0.0512392
2.419e-05,-0.0512574
2.422e-05,-0.0515471
2.426e-05,-0.0516144
2.429e-05,-0.0517604
2.432e-05,-0.0518425
2.435e-05,-0.0518825
2.438e-05,-0.0522498
2.442e-05,-0.0523547
2.445e-05,-0.0524676
2.448e-05,-0.0525543
2.451e-05,-0.0527083
2.454e-05,-0.0529147
2.458e-05,-0.0531064
2.461e-05,-0.0533824
2.464e-05,-0.0534942
2.467e-05,-0.0535113
2.470e-05,-0.0537109
2.474e-05,-0.0539584
2.477e-05,-0.0540713
2.480e-05,-0.0542698
2.483e-05,-0.0544455
2.486e-05,-0.0544774
2.490e-05,-0.0548778
2.493e-05,-0.0550306
2.496e-05,-0.0552234
2.499e-05,-0.0554743
2.502e-05,-0.0555598
2.506e-05,-0.0557173
2.509e-05,-0.0558712
2.512e-05,-0.0561085
2.515e-05,-0.0563161
2.518e-05,-0.0564986
2.522e-05,-0.0565955
2.525e-05,-0.0568373
2.528e-05,-0.0570871
2.531e-05,-0.0572195
2.534e-05,-0.0573985
2.538e-05,-0.0575902
2.541e-05,-0.0577806
2.544e-05,-0.0580225
2.547e-05,-0.0581582
2.550e-05,-0.0583327
2.554e-05,-0.058481
2.557e-05,-0.0585882
2.560e-05,-0.058887
2.563e-05,-0.059195
2.566e-05,-0.0592954
2.570e-05,-0.0595498
2.573e-05,-0.0596684
2.576e-05,-0.0598338
2.579e-05,-0.0601566
2.582e-05,-0.0601691
2.586e-05,-0.0604885
2.589e-05,-0.0607132
2.592e-05,-0.0607611
2.595e-05,-0.0610086
2.598e-05,-0.061369
2.602e-05,-0.0613953
2.605e-05,-0.0616861
2.608e-05,-0.0616941
2.611e-05,-0.0618709
2.614e-05,-0.0621025
2.618e-05,-0.0624161
2.621e-05,-0.0624618
2.624e-05,-0.0626294
2.627e-05,-0.0627948
2.630e-05,-0.0630138
2.634e-05,-0.0632112
2.637e-05,-0.0633948
2.640e-05,-0.0636674
2.643e-05,-0.0636172
2.646e-05,-0.063826
2.650e-05,-0.0640164
2.653e-05,-0.0642046
2.656e-05,-0.0643951
2.659e-05,-0.0643712
2.662e-05,-0.064516
2.666e-05,-0.0646769
2.669e-05,-0.0648343
2.672e-05,-0.0651194
2.675e-05,-0.0652175
2.678e-05,-0.0652552
2.682e-05,-0.0653339
2.685e-05,-0.0653886
2.688e-05,-0.0657
2.691e-05,-0.0658152
2.694e-05,-0.0658734
2.698e-05,-0.0659852
2.701e-05,-0.0660924
2.704e-05,-0.0661836
2.707e-05,-0.0664551
2.710e-05,-0.0663661
2.714e-05,-0.0665646
2.717e-05,-0.0666057
2.720e-05,-0.0667152
2.723e-05,-0.0667973
2.726e-05,-0.0668977
2.730e-05,-0.0669855
2.733e-05,-0.0670197
2.736e-05,-0.0670106
2.739e-05,-0.0671395
2.742e-05,-0.0672148
2.746e-05,-0.0671532
2.749e-05,-0.0673014
2.752e-05,-0.0674166
2.755e-05,-0.0673836
2.758e-05,-0.0675398
2.762e-05,-0.067501
2.765e-05,-0.0673744
2.768e-05,-0.0676094
2.771e-05,-0.0674714
2.774e-05,-0.0675501
2.778e-05,-0.0677315
2.781e-05,-0.0675912
2.784e-05,-0.0676208
2.787e-05,-0.0675969
2.790e-05,-0.0676642
2.794e-05,-0.0677246
2.797e-05,-0.0677029
2.800e-05,-0.0676528
2.803e-05,-0.0677132
2.806e-05,-0.0676345
2.810e-05,-0.0676105
2.813e-05,-0.0677121
2.816e-05,-0.067622
2.819e-05,-0.0675364
2.822e-05,-0.0675079
2.826e-05,-0.0674554
2.829e-05,-0.0674839
2.832e-05,-0.0675284
2.835e-05,-0.0673653
2.838e-05,-0.0672957
2.842e-05,-0.0672661
2.845e-05,-0.0671018
2.848e-05,-0.0671908
2.851e-05,-0.0669946
2.854e-05,-0.066965
2.858e-05,-0.0668041
2.861e-05,-0.0666638
2.864e-05,-0.0667562
2.867e-05,-0.0665247
2.870e-05,-0.0663262
2.874e-05,-0.0663273
2.877e-05,-0.0661505
2.880e-05,-0.0661038
2.883e-05,-0.0660445
2.886e-05,-0.065838
2.890e-05,-0.0656555
2.893e-05,-0.0654491
2.896e-05,-0.0652301
2.899e-05,-0.0652278
2.902e-05,-0.0650613
2.906e-05,-0.064921
2.909e-05,-0.0646461
2.912e-05,-0.0645537
2.915e-05,-0.0644043
2.918e-05,-0.0641465
2.922e-05,-0.0639423
2.925e-05,-0.0637404
2.928e-05,-0.0635054
2.931e-05,-0.0633914
2.934e-05,-0.0631598
2.938e-05,-0.0630994
2.941e-05,-0.0628998
2.944e-05,-0.062472
2.947e-05,-0.0624686
2.950e-05,-0.0622108
2.954e-05,-0.0621184
2.957e-05,-0.0619473
2.960e-05,-0.0616211
2.963e-05,-0.061539
2.966e-05,-0.061255
2.970e-05,-0.0610691
2.973e-05,-0.0609869
2.976e-05,-0.0605615
2.979e-05,-0.0604976
2.982e-05,-0.0602102
2.986e-05,-0.0601634
2.989e-05,-0.0599102
2.992e-05,-0.0596342
2.995e-05,-0.0594311
2.998e-05,-0.0591973
3.002e-05,-0.059
3.005e-05,-0.0588129
3.008e-05,-0.0586931
3.011e-05,-0.0584639
3.014e-05,-0.0582209
3.018e-05,-0.0580259
3.021e-05,-0.0577647
3.024e-05,-0.0577293
3.027e-05,-0.0573472
3.030e-05,-0.0571727
3.034e-05,-0.0569948
3.037e-05,-0.0568225
3.040e-05,-0.0565225
3.043e-05,-0.0563286
3.046e-05,-0.0561724
3.050e-05,-0.0559465
3.053e-05,-0.0555861
3.056e-05,-0.0554891
3.059e-05,-0.0553443
3.062e-05,-0.055164
3.066e-05,-0.0549519
3.069e-05,-0.0546781
3.072e-05,-0.0545356
3.075e-05,-0.0542858
3.078e-05,-0.05419
3.082e-05,-0.0539675
3.085e-05,-0.0537143
3.088e-05,-0.0536368
3.091e-05,-0.0534805
3.094e-05,-0.05329
3.098e-05,-0.053144
3.101e-05,-0.0528976
3.104e-05,-0.0525703
3.107e-05,-0.052463
3.110e-05,-0.052487
3.114e-05,-0.0522851
3.117e-05,-0.0521311
3.120e-05,-0.0520228
3.123e-05,-0.0516121
3.126e-05,-0.0515665
3.130e-05,-0.0514969
3.133e-05,-0.0512688
3.136e-05,-0.051335
3.139e-05,-0.0510852
3.142e-05,-0.0509061
3.146e-05,-0.0508183
3.149e-05,-0.050662
3.152e-05,-0.050605
3.155e-05,-0.050346
3.158e-05,-0.0501476
3.162e-05,-0.0501841
3.165e-05,-0.0500381
3.168e-05,-0.0499617
3.171e-05,-0.0498624
3.174e-05,-0.0496263
3.178e-05,-0.0495248
3.181e-05,-0.0494621
3.184e-05,-0.0493503
3.187e-05,-0.0493229
3.190e-05,-0.0490378
3.194e-05,-0.0489784
3.197e-05,-0.0488051
3.200e-05,-0.0488769
3.203e-05,-0.0488096
3.206e-05,-0.0485553
3.210e-05,-0.0484081
3.213e-05,-0.0485017
3.216e-05,-0.0481834
3.219e-05,-0.0481697
3.222e-05,-0.0481241
3.226e-05,-0.04801
3.229e-05,-0.0479279
3.232e-05,-0.0478025
3.235e-05,-0.0478127
3.238e-05,-0.0476063
3.242e-05,-0.0476747
3.245e-05,-0.0475025
3.248e-05,-0.0475435
3.251e-05,-0.0474979
3.254e-05,-0.0474648
3.258e-05,-0.0473223
3.261e-05,-0.0472527
3.264e-05,-0.0470827
3.267e-05,-0.047069
3.270e-05,-0.0471637
3.274e-05,-0.0470542
3.277e-05,-0.0470006
3.280e-05,-0.0468706
3.283e-05,-0.0467474
3.286e-05,-0.0468021
3.290e-05,-0.0466767
3.293e-05,-0.0467497
3.296e-05,-0.0466345
3.299e-05,-0.0465078
3.302e-05,-0.0465945
3.306e-05,-0.046501
3.309e-05,-0.0465375
3.312e-05,-0.0463972
3.315e-05,-0.0462968
3.318e-05,-0.0463276
3.322e-05,-0.0463117
3.325e-05,-0.0463151
3.328e-05,-0.046355
3.331e-05,-0.0461292
3.334e-05,-0.0461965
3.338e-05,-0.046087
3.341e-05,-0.0460083
3.344e-05,-0.0460094
3.347e-05,-0.0460174
3.350e-05,-0.0459478
3.354e-05,-0.0459558
3.357e-05,-0.0459911
3.360e-05,-0.0458223
3.363e-05,-0.0458794
3.366e-05,-0.0458531
3.370e-05,-0.045714
3.373e-05,-0.0457733
3.376e-05,-0.0457482
3.379e-05,-0.0456991
3.382e-05,-0.0456855
3.386e-05,-0.0456855
3.389e-05,-0.045495
3.392e-05,-0.0455132
3.395e-05,-0.0455988
3.398e-05,-0.0455703
3.402e-05,-0.0454448
3.405e-05,-0.0455075
3.408e-05,-0.0454858
3.411e-05,-0.0454493
3.414e-05,-0.0454368
3.418e-05,-0.0454801
3.421e-05,-0.0452954
3.424e-05,-0.0454163
3.427e-05,-0.0453786
3.430e-05,-0.0453912
3.434e-05,-0.0454927
3.437e-05,-0.0453741
3.440e-05,-0.0453364
3.443e-05,-0.0453284
3.446e-05,-0.0452509
3.450e-05,-0.0453627
3.453e-05,-0.0453957
3.456e-05,-0.0453592
3.459e-05,-0.0452908
3.462e-05,-0.0454322
3.466e-05,-0.0454083
3.469e-05,-0.0452691
3.472e-05,-0.0453376
3.475e-05,-0.0454094
3.478e-05,-0.045171
3.482e-05,-0.0453957
3.485e-05,-0.045503
3.488e-05,-0.045284
3.491e-05,-0.0454699
3.494e-05,-0.0453125
3.498e-05,-0.0452132
3.501e-05,-0.0453159
3.504e-05,-0.0453638
3.507e-05,-0.0452931
3.510e-05,-0.0452862
3.514e-05,-0.045138
3.517e-05,-0.0453045
3.520e-05,-0.0452189
3.523e-05,-0.045114
3.526e-05,-0.0451938
3.530e-05,-0.0451767
3.533e-05,-0.0451345
3.536e-05,-0.045171
3.539e-05,-0.0451733
3.542e-05,-0.0451049
3.546e-05,-0.0450182
3.549e-05,-0.0450912
3.552e-05,-0.0450912
3.555e-05,-0.0451813
3.558e-05,-0.045187
3.562e-05,-0.0450604
3.565e-05,-0.045106
3.568e-05,-0.0451231
3.571e-05,-0.0450923
3.574e-05,-0.0450729
3.578e-05,-0.0451345
3.581e-05,-0.0450923
3.584e-05,-0.0452497
3.587e-05,-0.0451938
3.590e-05,-0.0451688
3.594e-05,-0.0451745
3.597e-05,-0.0452075
3.600e-05,-0.0450535
3.603e-05,-0.0452589
3.606e-05,-0.0452976
3.610e-05,-0.0451619
3.613e-05,-0.0451665
3.616e-05,-0.0453535
3.619e-05,-0.0451562
3.622e-05,-0.0452908
3.626e-05,-0.0453604
3.629e-05,-0.0452577
3.632e-05,-0.045244
3.635e-05,-0.0453775
3.638e-05,-0.0452509
3.642e-05,-0.0453535
3.645e-05,-0.0453946
3.648e-05,-0.0454163
3.651e-05,-0.0454231
3.654e-05,-0.0452691
3.658e-05,-0.045414
3.661e-05,-0.0454379
3.664e-05,-0.0453832
3.667e-05,-0.0454174
3.670e-05,-0.0453855
3.674e-05,-0.0453706
3.677e-05,-0.0454322
3.680e-05,-0.0454425
3.683e-05,-0.045455
3.686e-05,-0.0454151
3.690e-05,-0.0454083
3.693e-05,-0.0454642
3.696e-05,-0.0454699
3.699e-05,-0.0455383
3.702e-05,-0.0455041
3.706e-05,-0.0454014
3.709e-05,-0.0454493
3.712e-05,-0.0455474
3.715e-05,-0.0454493
3.718e-05,-0.045609
3.722e-05,-0.045503
3.725e-05,-0.0453786
3.728e-05,-0.0456375
3.731e-05,-0.0455246
3.734e-05,-0.0454801
3.738e-05,-0.0456672
3.741e-05,-0.045463
3.744e-05,-0.0455007
3.747e-05,-0.0456832
3.750e-05,-0.0454288
3.754e-05,-0.045601
3.757e-05,-0.0455064
3.760e-05,-0.045349
3.763e-05,-0.045544
3.766e-05,-0.0455212
3.770e-05,-0.0454174
3.773e-05,-0.0455509
3.776e-05,-0.0454847
3.779e-05,-0.0453079
3.782e-05,-0.0454288
3.786e-05,-0.0454562
3.789e-05,-0.0454414
3.792e-05,-0.0455338
3.795e-05,-0.0453455
3.798e-05,-0.0453957
3.802e-05,-0.0454379
3.805e-05,-0.0454379
3.808e-05,-0.0454265
3.811e-05,-0.0454744
3.814e-05,-0.045357
3.818e-05,-0.0454676
3.821e-05,-0.0455041
3.824e-05,-0.045463
3.827e-05,-0.0454345
3.830e-05,-0.045455
3.834e-05,-0.0453763
3.837e-05,-0.0454277
3.840e-05,-0.045544
3.843e-05,-0.0454665
3.846e-05,-0.0453364
3.850e-05,-0.0455041
3.853e-05,-0.0454117
3.856e-05,-0.0453912
3.859e-05,-0.0454014
3.862e-05,-0.0453262
3.866e-05,-0.045398
3.869e-05,-0.0452817
3.872e-05,-0.0453387
3.875e-05,-0.0453763
3.878e-05,-0.0453421
3.882e-05,-0.045276
3.885e-05,-0.0452338
3.888e-05,-0.0451425
3.891e-05,-0.0451995
3.894e-05,-0.0452965
3.898e-05,-0.0451984
3.901e-05,-0.0451482
3.904e-05,-0.0451767
3.907e-05,-0.0451767
3.910e-05,-0.0452281
3.914e-05,-0.0451265
3.917e-05,-0.0451323
3.920e-05,-0.0451208
3.923e-05,-0.0451003
3.926e-05,-0.0451824
3.930e-05,-0.0451973
3.933e-05,-0.0451824
3.936e-05,-0.0450992
3.939e-05,-0.0450935
3.942e-05,-0.0452566
3.946e-05,-0.0451049
3.949e-05,-0.0451505
3.952e-05,-0.0452246
3.955e-05,-0.0450535
3.958e-05,-0.0451288
3.962e-05,-0.0452018
3.965e-05,-0.0451083
3.968e-05,-0.045187
3.971e-05,-0.0450798
3.974e-05,-0.0451562
3.978e-05,-0.0452121
3.981e-05,-0.0451608
3.984e-05,-0.0451893
3.987e-05,-0.0450809
3.990e-05,-0.0451094
3.994e-05,-0.0451357
3.997e-05,-0.0451722
4.000e-05,-0.0451722
4.003e-05,-0.0452087
4.006e-05,-0.0450946
4.010e-05,-0.0452543
4.013e-05,-0.0450467
4.016e-05,-0.0451927
4.019e-05,-0.0451802
4.022e-05,-0.0450661
4.026e-05,-0.0452463
4.029e-05,-0.0451197
4.032e-05,-0.0452041
4.035e-05,-0.0452292
4.038e-05,-0.0452577
4.042e-05,-0.045138
4.045e-05,-0.0451174
4.048e-05,-0.0452155
4.051e-05,-0.0451859
4.054e-05,-0.0452646
4.058e-05,-0.0451927
4.061e-05,-0.0452623
4.064e-05,-0.0451745
4.067e-05,-0.045276
4.070e-05,-0.0453159
4.074e-05,-0.0452646
4.077e-05,-0.0452098
4.080e-05,-0.0452167
4.083e-05,-0.0453592
4.086e-05,-0.0452475
4.090e-05,-0.0452999
4.093e-05,-0.045333
4.096e-05,-0.0451516
4.099e-05,-0.0453786
4.102e-05,-0.0453444
4.106e-05,-0.0453524
4.109e-05,-0.0453957
4.112e-05,-0.0453205
4.115e-05,-0.0452577
4.118e-05,-0.0453638
4.122e-05,-0.0452064
4.125e-05,-0.045357
4.128e-05,-0.0453718
4.131e-05,-0.0453307
4.134e-05,-0.0452897
4.138e-05,-0.045414
4.141e-05,-0.0452703
4.144e-05,-0.0452771
4.147e-05,-0.0453649
4.150e-05,-0.0452589
4.154e-05,-0.04526
4.157e-05,-0.0454471
4.160e-05,-0.0453729
4.163e-05,-0.0452942
4.166e-05,-0.0454094
4.170e-05,-0.0454083
4.173e-05,-0.0453353
4.176e-05,-0.04543
4.179e-05,-0.0453615
4.182e-05,-0.0452543
4.186e-05,-0.0454687
4.189e-05,-0.0452862
4.192e-05,-0.0454334
4.195e-05,-0.0454779
4.198e-05,-0.0452338
4.202e-05,-0.0453421
4.205e-05,-0.045341
4.208e-05,-0.0453433
4.211e-05,-0.0454311
4.214e-05,-0.0454151
4.218e-05,-0.0453615
4.221e-05,-0.0454334
4.224e-05,-0.0454756
4.227e-05,-0.0454391
4.230e-05,-0.0454368
4.234e-05,-0.0454425
4.237e-05,-0.0454151
4.240e-05,-0.0454117
4.243e-05,-0.0454562
4.246e-05,-0.0455201
4.250e-05,-0.0454151
4.253e-05,-0.0453661
4.256e-05,-0.0454208
4.259e-05,-0.0453638
4.262e-05,-0.0454528
4.266e-05,-0.045414
4.269e-05,-0.0454117
4.272e-05,-0.0454026
4.275e-05,-0.0453558
4.278e-05,-0.0454391
4.282e-05,-0.0454117
4.285e-05,-0.0453992
4.288e-05,-0.045495
4.291e-05,-0.0453227
4.294e-05,-0.0455189
4.298e-05,-0.0453855
4.301e-05,-0.0453775
4.304e-05,-0.0454391
4.307e-05,-0.045276
4.310e-05,-0.04543
4.314e-05,-0.0453011
4.317e-05,-0.0454893
4.320e-05,-0.045455
4.323e-05,-0.0453558
4.326e-05,-0.0454425
4.330e-05,-0.0453684
4.333e-05,-0.0453581
4.336e-05,-0.0454094
4.339e-05,-0.0453079
4.342e-05,-0.0453957
4.346e-05,-0.0455417
4.349e-05,-0.045309
4.352e-05,-0.0454836
4.355e-05,-0.04543
4.358e-05,-0.0452246
4.362e-05,-0.0454653
4.365e-05,-0.0454163
4.368e-05,-0.0453398
4.371e-05,-0.0454505
4.374e-05,-0.0452771
4.378e-05,-0.0454254
4.381e-05,-0.0453775
4.384e-05,-0.045163
4.387e-05,-0.0454995
4.390e-05,-0.0454402
4.394e-05,-0.0453684
4.397e-05,-0.0454322
4.400e-05,-0.0453033
4.403e-05,-0.0453992
4.406e-05,-0.045455
4.410e-05,-0.0453741
4.413e-05,-0.0453752
4.416e-05,-0.0453033
4.419e-05,-0.0453547
4.422e-05,-0.0453444
4.426e-05,-0.0453068
4.429e-05,-0.045406
4.432e-05,-0.0452463
4.435e-05,-0.0452976
4.438e-05,-0.0453273
4.442e-05,-0.0452668
4.445e-05,-0.0452885
4.448e-05,-0.0453239
4.451e-05,-0.0452189
4.454e-05,-0.0452463
4.458e-05,-0.0453113
4.461e-05,-0.0452292
4.464e-05,-0.0452737
4.467e-05,-0.0453262
4.470e-05,-0.0451528
4.474e-05,-0.0452714
4.477e-05,-0.0452874
4.480e-05,-0.045171
4.483e-05,-0.0453376
4.486e-05,-0.0451802
4.490e-05,-0.045138
4.493e-05,-0.0450935
4.496e-05,-0.0453478
4.499e-05,-0.0452258
4.502e-05,-0.0452418
4.506e-05,-0.0452908
4.509e-05,-0.0453307
4.512e-05,-0.0453045
4.515e-05,-0.04543
4.518e-05,-0.0452087
4.522e-05,-0.0452486
4.525e-05,-0.0453843
4.528e-05,-0.0453273
4.531e-05,-0.0454174
4.534e-05,-0.0453068
4.538e-05,-0.0452064
4.541e-05,-0.0453638
4.544e-05,-0.0454436
4.547e-05,-0.045406
4.550e-05,-0.0454528
4.554e-05,-0.0453558
4.557e-05,-0.0453935
4.560e-05,-0.0453524
4.563e-05,-0.0453912
4.566e-05,-0.0454733
4.570e-05,-0.0454185
4.573e-05,-0.0454231
4.576e-05,-0.0453935
4.579e-05,-0.0453501
4.582e-05,-0.0454927
4.586e-05,-0.0454687
4.589e-05,-0.0453068
4.592e-05,-0.0453615
4.595e-05,-0.0453467
4.598e-05,-0.0453969
4.602e-05,-0.0454608
4.605e-05,-0.0453284
4.608e-05,-0.0454254
4.611e-05,-0.0453205
4.614e-05,-0.0453022
4.618e-05,-0.0454482
4.621e-05,-0.0453763
4.624e-05,-0.0453227
4.627e-05,-0.0454973
4.630e-05,-0.0452258
4.634e-05,-0.0453775
4.637e-05,-0.0454596
4.640e-05,-0.0452543
4.643e-05,-0.0454265
4.646e-05,-0.0453398
4.650e-05,-0.0453775
4.653e-05,-0.0453809
4.656e-05,-0.0454471
4.659e-05,-0.045536
4.662e-05,-0.0454049
4.666e-05,-0.0453649
4.669e-05,-0.0454083
4.672e-05,-0.0453125
4.675e-05,-0.0454391
4.678e-05,-0.045349
4.682e-05,-0.0453992
4.685e-05,-0.0453444
4.688e-05,-0.0454117
4.691e-05,-0.04539
4.694e-05,-0.0452771
4.698e-05,-0.0454345
4.701e-05,-0.0453718
4.704e-05,-0.0453513
4.707e-05,-0.0454516
4.710e-05,-0.0453923
4.714e-05,-0.045357
4.717e-05,-0.0454459
4.720e-05,-0.0453866
4.723e-05,-0.0455087
4.726e-05,-0.0454083
4.730e-05,-0.0454357
4.733e-05,-0.0454779
4.736e-05,-0.0453957
4.739e-05,-0.0455087
4.742e-05,-0.0455588
4.746e-05,-0.0454801
4.749e-05,-0.0454402
4.752e-05,-0.0454653
4.755e-05,-0.0454722
4.758e-05,-0.0454243
4.762e-05,-0.0456832
4.765e-05,-0.0456341
4.768e-05,-0.0455383
4.771e-05,-0.045552
4.774e-05,-0.0455896
4.778e-05,-0.045471
4.781e-05,-0.0455395
4.784e-05,-0.0454642
4.787e-05,-0.0454801
4.790e-05,-0.0455543
4.794e-05,-0.0454037
4.797e-05,-0.0454037
4.800e-05,-0.0455212
4.803e-05,-0.045276
4.806e-05,-0.045568
4.810e-05,-0.0454847
4.813e-05,-0.0453832
4.816e-05,-0.045382
4.819e-05,-0.0454608
4.822e-05,-0.0454117
4.826e-05,-0.0453946
4.829e-05,-0.04543
4.832e-05,-0.0454368
4.835e-05,-0.0453957
4.838e-05,-0.0454573
4.842e-05,-0.0453706
4.845e-05,-0.0453592
4.848e-05,-0.0454402
4.851e-05,-0.0453969
4.854e-05,-0.0452931
4.858e-05,-0.0454562
4.861e-05,-0.0453695
4.864e-05,-0.0454493
4.867e-05,-0.0455007
4.870e-05,-0.0454642
4.874e-05,-0.0453604
4.877e-05,-0.0454357
4.880e-05,-0.0455052
4.883e-05,-0.0454665
4.886e-05,-0.0455292
4.890e-05,-0.0454357
4.893e-05,-0.0453969
4.896e-05,-0.0454254
4.899e-05,-0.0454368
4.902e-05,-0.0454858
4.906e-05,-0.0454208
4.909e-05,-0.045471
4.912e-05,-0.0454197
4.915e-05,-0.0453627
4.918e-05,-0.0455052
4.922e-05,-0.0453992
4.925e-05,-0.0454037
4.928e-05,-0.045568
4.931e-05,-0.0453444
4.934e-05,-0.0454003
4.938e-05,-0.0455121
4.941e-05,-0.0455566
4.944e-05,-0.0454003
4.947e-05,-0.0455087
4.950e-05,-0.045528
4.954e-05,-0.0455155
4.957e-05,-0.0454539
4.960e-05,-0.0455246
4.963e-05,-0.0454049
4.966e-05,-0.0454653
4.970e-05,-0.0455931
4.973e-05,-0.0455223
4.976e-05,-0.0455497
4.979e-05,-0.0454493
4.982e-05,-0.0454049
4.986e-05,-0.0454414
4.989e-05,-0.0455839
4.992e-05,-0.045487
4.995e-05,-0.0455817
4.998e-05,-0.0455839
5.002e-05,-0.0454425
5.005e-05,-0.0455303
5.008e-05,-0.0454539
5.011e-05,-0.045422
5.014e-05,-0.0454562
5.018e-05,-0.0454665
5.021e-05,-0.04543
5.024e-05,-0.0454596
5.027e-05,-0.0454448
5.030e-05,-0.0452897
5.034e-05,-0.0453741
5.037e-05,-0.0453535
5.040e-05,-0.0453855
5.043e-05,-0.045382
5.046e-05,-0.0453353
5.050e-05,-0.045349
5.053e-05,-0.0453843
5.056e-05,-0.0452098
5.059e-05,-0.0453284
5.062e-05,-0.0453843
5.066e-05,-0.0453056
5.069e-05,-0.0453341
5.072e-05,-0.0451813
5.075e-05,-0.0453615
5.078e-05,-0.0453741
5.082e-05,-0.0453056
5.085e-05,-0.0453878
5.088e-05,-0.0453535
5.091e-05,-0.0453262
5.094e-05,-0.0454505
5.098e-05,-0.045455
5.101e-05,-0.0454243
5.104e-05,-0.0453957
5.107e-05,-0.0454676
5.110e-05,-0.0452885
5.114e-05,-0.0454813
5.117e-05,-0.0454619
5.120e-05,-0.0454984
5.123e-05,-0.0454995
5.126e-05,-0.0453387
5.130e-05,-0.0454003
5.133e-05,-0.0454345
5.136e-05,-0.0454482
5.139e-05,-0.0454357
5.142e-05,-0.0454824
5.146e-05,-0.04543
5.149e-05,-0.0453455
5.152e-05,-0.0453444
5.155e-05,-0.0453376
5.158e-05,-0.0453763
5.162e-05,-0.0453387
5.165e-05,-0.0453284
5.168e-05,-0.0453376
5.171e-05,-0.0452771
5.174e-05,-0.0452851
5.178e-05,-0.0453227
5.181e-05,-0.0451973
5.184e-05,-0.0453832
5.187e-05,-0.045317
5.190e-05,-0.045179
5.194e-05,-0.0453341
5.197e-05,-0.0453148
5.200e-05,-0.0452862
5.203e-05,-0.0453946
5.206e-05,-0.0452486
5.210e-05,-0.0453022
5.213e-05,-0.0452589
5.216e-05,-0.0452429
5.219e-05,-0.0453444
5.222e-05,-0.0453478
5.226e-05,-0.0452919
5.229e-05,-0.0454117
5.232e-05,-0.0453866
5.235e-05,-0.0453615
5.238e-05,-0.0454995
5.242e-05,-0.0454984
5.245e-05,-0.0453615
5.248e-05,-0.0455201
5.251e-05,-0.045463
5.254e-05,-0.0454311
5.258e-05,-0.0455246
5.261e-05,-0.0455098
5.264e-05,-0.0454539
5.267e-05,-0.0454973
5.270e-05,-0.0455087
5.274e-05,-0.0455474
5.277e-05,-0.0454824
5.280e-05,-0.0454756
5.283e-05,-0.0455087
5.286e-05,-0.0454881
5.290e-05,-0.0454699
5.293e-05,-0.0454904
5.296e-05,-0.045503
5.299e-05,-0.0454733
5.302e-05,-0.0455315
5.306e-05,-0.0454003
5.309e-05,-0.0455349
5.312e-05,-0.0455942
5.315e-05,-0.0454345
5.318e-05,-0.0454665
5.322e-05,-0.0454379
5.325e-05,-0.0453923
5.328e-05,-0.0454915
5.331e-05,-0.0454163
5.334e-05,-0.0453113
5.338e-05,-0.0454516
5.341e-05,-0.0453547
5.344e-05,-0.0453649
5.347e-05,-0.0453809
5.350e-05,-0.0453946
5.354e-05,-0.045317
5.357e-05,-0.0453319
5.360e-05,-0.045463
5.363e-05,-0.0453284
5.366e-05,-0.0452668
5.370e-05,-0.0454311
5.373e-05,-0.0452931
5.376e-05,-0.0453045
5.379e-05,-0.045349
5.382e-05,-0.0453433
5.386e-05,-0.0452406
5.389e-05,-0.0453273
5.392e-05,-0.0453307
5.395e-05,-0.0454254
5.398e-05,-0.0452725
5.402e-05,-0.0452098
5.405e-05,-0.0453159
5.408e-05,-0.0452246
5.411e-05,-0.0452999
5.414e-05,-0.0453763
5.418e-05,-0.045333
5.421e-05,-0.0452794
5.424e-05,-0.0452577
5.427e-05,-0.045276
5.430e-05,-0.0453319
5.434e-05,-0.045414
5.437e-05,-0.0453957
5.440e-05,-0.0453935
5.443e-05,-0.0453513
5.446e-05,-0.0454904
5.450e-05,-0.0454014
5.453e-05,-0.0454197
5.456e-05,-0.0454836
5.459e-05,-0.0455087
5.462e-05,-0.0454585
5.466e-05,-0.0454904
5.469e-05,-0.0455132
5.472e-05,-0.0455668
5.475e-05,-0.045609
5.478e-05,-0.0456068
5.482e-05,-0.0456159
5.485e-05,-0.04556
5.488e-05,-0.0455303
5.491e-05,-0.0455497
5.494e-05,-0.045633
5.498e-05,-0.0455303
5.501e-05,-0.0455782
5.504e-05,-0.0456033
5.507e-05,-0.0455166
5.510e-05,-0.045576
5.514e-05,-0.0455634
5.517e-05,-0.0455531
5.520e-05,-0.0457368
5.523e-05,-0.0455109
5.526e-05,-0.0456136
5.530e-05,-0.0455828
5.533e-05,-0.0454995
5.536e-05,-0.0456923
5.539e-05,-0.0455828
5.542e-05,-0.0456649
5.546e-05,-0.0455087
5.549e-05,-0.0454174
5.552e-05,-0.0455771
5.555e-05,-0.045576
5.558e-05,-0.0455942
5.562e-05,-0.0456318
5.565e-05,-0.045317
5.568e-05,-0.0455486
5.571e-05,-0.0455965
5.574e-05,-0.0454003
5.578e-05,-0.0455999
5.581e-05,-0.0455988
5.584e-05,-0.0454813
5.587e-05,-0.045357
5.590e-05,-0.0455109
5.594e-05,-0.0454676
5.597e-05,-0.0455463
5.600e-05,-0.0453513
5.603e-05,-0.0454858
5.606e-05,-0.045495
5.610e-05,-0.0454961
5.613e-05,-0.0454539
5.616e-05,-0.0454767
5.619e-05,-0.0454585
5.622e-05,-0.0454915
5.626e-05,-0.0455463
5.629e-05,-0.0454311
5.632e-05,-0.0455212
5.635e-05,-0.0454858
5.638e-05,-0.0454311
5.642e-05,-0.045576
5.645e-05,-0.0454174
5.648e-05,-0.0454528
5.651e-05,-0.0455634
5.654e-05,-0.0454197
5.658e-05,-0.0454642
5.661e-05,-0.0453695
5.664e-05,-0.0455429
5.667e-05,-0.0453501
5.670e-05,-0.0453992
5.674e-05,-0.0453946
5.677e-05,-0.0454128
5.680e-05,-0.045495
5.683e-05,-0.0454288
5.686e-05,-0.045463
5.690e-05,-0.0454243
5.693e-05,-0.045341
5.696e-05,-0.0454174
5.699e-05,-0.0454973
5.702e-05,-0.0453524
5.706e-05,-0.045406
5.709e-05,-0.0453638
5.712e-05,-0.0454391
5.715e-05,-0.0453878
5.718e-05,-0.0454334
5.722e-05,-0.0453193
5.725e-05,-0.0453581
5.728e-05,-0.0453855
5.731e-05,-0.0454265
5.734e-05,-0.0454801
5.738e-05,-0.0454083
5.741e-05,-0.0454003
5.744e-05,-0.0453923
5.747e-05,-0.0453957
5.750e-05,-0.0454858
5.754e-05,-0.0454128
5.757e-05,-0.045463
5.760e-05,-0.0454505
5.763e-05,-0.045406
5.766e-05,-0.045422
5.770e-05,-0.0455497
5.773e-05,-0.04543
5.776e-05,-0.0455395
5.779e-05,-0.0455166
5.782e-05,-0.0454779
5.786e-05,-0.0454927
5.789e-05,-0.0456022
5.792e-05,-0.0454676
5.795e-05,-0.0455087
5.798e-05,-0.0455953
5.802e-05,-0.0454619
5.805e-05,-0.0456227
5.808e-05,-0.0454995
5.811e-05,-0.0455303
5.814e-05,-0.0456501
5.818e-05,-0.0455178
5.821e-05,-0.0456307
5.824e-05,-0.0455235
5.827e-05,-0.0455372
5.830e-05,-0.0455395
5.834e-05,-0.0455155
5.837e-05,-0.0455931
5.840e-05,-0.0455999
5.843e-05,-0.0455862
5.846e-05,-0.045536
5.850e-05,-0.0456204
5.853e-05,-0.0454984
5.856e-05,-0.0455486
5.859e-05,-0.0457128
5.862e-05,-0.0455155
5.866e-05,-0.045576
5.869e-05,-0.0455839
5.872e-05,-0.0454322
5.875e-05,-0.0456798
5.878e-05,-0.0456501
5.882e-05,-0.0455588
5.885e-05,-0.0457128
5.888e-05,-0.0456182
5.891e-05,-0.0455839
5.894e-05,-0.0455965
5.898e-05,-0.0456261
5.901e-05,-0.0456353
5.904e-05,-0.0456877
5.907e-05,-0.045601
5.910e-05,-0.0456125
5.914e-05,-0.0457197
5.917e-05,-0.0456877
5.920e-05,-0.0456364
5.923e-05,-0.045682
5.926e-05,-0.0456193
5.930e-05,-0.0457105
5.933e-05,-0.0456455
5.936e-05,-0.045625
5.939e-05,-0.0457345
5.942e-05,-0.045625
5.946e-05,-0.0456387
5.949e-05,-0.0456216
5.952e-05,-0.0456193
5.955e-05,-0.0455771
5.958e-05,-0.0457048
5.962e-05,-0.0455087
5.965e-05,-0.0456125
5.968e-05,-0.0455486
5.971e-05,-0.0454254
