Model,TBS1102C
Firmware Version,v2015-08-04-prequal4ch70_v1.3

Point Format,Y
Horizontal Units,S
Horizontal Scale,4e-06
Sample Interval,3.2e-08
Filter Frequency,2e+08
Record Length,2000
Gating,0.0% to 100.0%
Probe Attenuation,1
Vertical Units,V
Vertical Offset,0
Vertical Scale,0.00585
Label,
TIME,CH1
-6.656e-06,-0.0324328
-6.624e-06,-0.0323276
-6.592e-06,-0.0322975
-6.560e-06,-0.0323459
-6.528e-06,-0.0324172
-6.496e-06,-0.0323286
-6.464e-06,-0.0323706
-6.432e-06,-0.0323267
-6.400e-06,-0.0323962
-6.368e-06,-0.032377
-6.336e-06,-0.0322792
-6.304e-06,-0.032356
-6.272e-06,-0.0324401
-6.240e-06,-0.032303
-6.208e-06,-0.032356
-6.176e-06,-0.0323861
-6.144e-06,-0.032441
-6.112e-06,-0.0324821
-6.080e-06,-0.0323532
-6.048e-06,-0.0324446
-6.016e-06,-0.0323752
-5.984e-06,-0.0323679
-5.952e-06,-0.0325717
-5.920e-06,-0.0324465
-5.888e-06,-0.0325105
-5.856e-06,-0.0324602
-5.824e-06,-0.0323907
-5.792e-06,-0.0324666
-5.760e-06,-0.0324748
-5.728e-06,-0.0324154
-5.696e-06,-0.0325461
-5.664e-06,-0.0324922
-5.632e-06,-0.0324556
-5.600e-06,-0.0324876
-5.568e-06,-0.032473
-5.536e-06,-0.0324026
-5.504e-06,-0.0324785
-5.472e-06,-0.0325233
-5.440e-06,-0.0324154
-5.408e-06,-0.0324419
-5.376e-06,-0.0324949
-5.344e-06,-0.0324364
-5.312e-06,-0.0323587
-5.280e-06,-0.0324181
-5.248e-06,-0.0323871
-5.216e-06,-0.0323788
-5.184e-06,-0.0323761
-5.152e-06,-0.0324958
-5.120e-06,-0.0324538
-5.088e-06,-0.0324099
-5.056e-06,-0.0325635
-5.024e-06,-0.0323057
-4.992e-06,-0.0323432
-4.960e-06,-0.0324026
-4.928e-06,-0.0324401
-4.896e-06,-0.0325351
-4.864e-06,-0.0324437
-4.832e-06,-0.0324264
-4.800e-06,-0.0324117
-4.768e-06,-0.0323021
-4.736e-06,-0.0324163
-4.704e-06,-0.0324337
-4.672e-06,-0.0325105
-4.640e-06,-0.0324547
-4.608e-06,-0.0324867
-4.576e-06,-0.03242
-4.544e-06,-0.0323715
-4.512e-06,-0.03242
-4.480e-06,-0.0324053
-4.448e-06,-0.0324483
-4.416e-06,-0.0323962
-4.384e-06,-0.0323377
-4.352e-06,-0.032388
-4.320e-06,-0.0323651
-4.288e-06,-0.0324273
-4.256e-06,-0.0323523
-4.224e-06,-0.0323496
-4.192e-06,-0.0324373
-4.160e-06,-0.0322609
-4.128e-06,-0.032473
-4.096e-06,-0.032451
-4.064e-06,-0.0322865
-4.032e-06,-0.0323907
-4.000e-06,-0.0323331
-3.968e-06,-0.0323523
-3.936e-06,-0.0322701
-3.904e-06,-0.0324748
-3.872e-06,-0.0324136
-3.840e-06,-0.032366
-3.808e-06,-0.0325105
-3.776e-06,-0.0324081
-3.744e-06,-0.0323724
-3.712e-06,-0.0326311
-3.680e-06,-0.0324483
-3.648e-06,-0.0324154
-3.616e-06,-0.0325278
-3.584e-06,-0.0325205
-3.552e-06,-0.0324008
-3.520e-06,-0.032451
-3.488e-06,-0.032569
-3.456e-06,-0.032409
-3.424e-06,-0.0324181
-3.392e-06,-0.0324693
-3.360e-06,-0.0324913
-3.328e-06,-0.0324346
-3.296e-06,-0.0325059
-3.264e-06,-0.0324995
-3.232e-06,-0.0324456
-3.200e-06,-0.0323551
-3.168e-06,-0.0324465
-3.136e-06,-0.0324319
-3.104e-06,-0.0324885
-3.072e-06,-0.0324611
-3.040e-06,-0.0323843
-3.008e-06,-0.0324483
-2.976e-06,-0.0323587
-2.944e-06,-0.0323468
-2.912e-06,-0.0323989
-2.880e-06,-0.0323331
-2.848e-06,-0.0323368
-2.816e-06,-0.03243
-2.784e-06,-0.0324136
-2.752e-06,-0.0322911
-2.720e-06,-0.0324319
-2.688e-06,-0.0323551
-2.656e-06,-0.0323139
-2.624e-06,-0.0324501
-2.592e-06,-0.0322966
-2.560e-06,-0.0323587
-2.528e-06,-0.0325818
-2.496e-06,-0.032441
-2.464e-06,-0.0323734
-2.432e-06,-0.0324181
-2.400e-06,-0.032388
-2.368e-06,-0.0323715
-2.336e-06,-0.0324428
-2.304e-06,-0.0325269
-2.272e-06,-0.0325872
-2.240e-06,-0.0323459
-2.208e-06,-0.0324766
-2.176e-06,-0.0324053
-2.144e-06,-0.0324373
-2.112e-06,-0.032484
-2.080e-06,-0.0324675
-2.048e-06,-0.0324437
-2.016e-06,-0.0324474
-1.984e-06,-0.0323825
-1.952e-06,-0.0324501
-1.920e-06,-0.0323624
-1.888e-06,-0.0323697
-1.856e-06,-0.032366
-1.824e-06,-0.0323679
-1.792e-06,-0.0323834
-1.760e-06,-0.0324556
-1.728e-06,-0.0324574
-1.696e-06,-0.0323715
-1.664e-06,-0.0324181
-1.632e-06,-0.0323834
-1.600e-06,-0.0322655
-1.568e-06,-0.0323724
-1.536e-06,-0.03242
-1.504e-06,-0.0323962
-1.472e-06,-0.0324684
-1.440e-06,-0.0323505
-1.408e-06,-0.0322618
-1.376e-06,-0.0324675
-1.344e-06,-0.0323094
-1.312e-06,-0.0324191
-1.280e-06,-0.0325077
-1.248e-06,-0.0324282
-1.216e-06,-0.0324017
-1.184e-06,-0.032377
-1.152e-06,-0.0322618
-1.120e-06,-0.032441
-1.088e-06,-0.0323459
-1.056e-06,-0.0324017
-1.024e-06,-0.0324337
-9.920e-07,-0.0324282
-9.600e-07,-0.0324255
-9.280e-07,-0.0324465
-8.960e-07,-0.0323441
-8.640e-07,-0.0324108
-8.320e-07,-0.0323633
-8.000e-07,-0.0323633
-7.680e-07,-0.0324136
-7.360e-07,-0.0324547
-7.040e-07,-0.0324876
-6.720e-07,-0.0324035
-6.400e-07,-0.0324319
-6.080e-07,-0.0323898
-5.760e-07,-0.0322655
-5.440e-07,-0.0324803
-5.120e-07,-0.0324154
-4.800e-07,-0.0325041
-4.480e-07,-0.0324986
-4.160e-07,-0.0324666
-3.840e-07,-0.0324401
-3.520e-07,-0.0324684
-3.200e-07,-0.0324593
-2.880e-07,-0.0325616
-2.560e-07,-0.0325754
-2.240e-07,-0.0325388
-1.920e-07,-0.0325936
-1.600e-07,-0.0325973
-1.280e-07,-0.0325205
-9.600e-08,-0.0326668
-6.400e-08,-0.0329437
-3.200e-08,-0.0318213
-2.714e-20,-0.03292
3.200e-08,-0.0319392
6.400e-08,-0.0329382
9.600e-08,-0.0323423
1.280e-07,-0.0325516
1.600e-07,-0.0325105
1.920e-07,-0.0325388
2.240e-07,-0.0325955
2.560e-07,-0.0325836
2.880e-07,-0.0326448
3.200e-07,-0.0326384
3.520e-07,-0.0325754
3.840e-07,-0.0326137
4.160e-07,-0.0326485
4.480e-07,-0.0326384
4.800e-07,-0.0326485
5.120e-07,-0.0327481
5.440e-07,-0.0327545
5.760e-07,-0.0326631
6.080e-07,-0.0329008
6.400e-07,-0.0327902
6.720e-07,-0.0327956
7.040e-07,-0.0326339
7.360e-07,-0.0327426
7.680e-07,-0.0328999
8.000e-07,-0.032834
8.320e-07,-0.0330315
8.640e-07,-0.0330095
8.960e-07,-0.0328532
9.280e-07,-0.032983
9.600e-07,-0.0328843
9.920e-07,-0.0329328
1.024e-06,-0.0330927
1.056e-06,-0.0331869
1.088e-06,-0.0331677
1.120e-06,-0.0329748
1.152e-06,-0.0331275
1.184e-06,-0.033026
1.216e-06,-0.0330552
1.248e-06,-0.0331439
1.280e-06,-0.0330836
1.312e-06,-0.0331311
1.344e-06,-0.0330708
1.376e-06,-0.0330799
1.408e-06,-0.0330708
1.440e-06,-0.0330635
1.472e-06,-0.0329913
1.504e-06,-0.0330735
1.536e-06,-0.033005
1.568e-06,-0.0329922
1.600e-06,-0.033068
1.632e-06,-0.0330068
1.664e-06,-0.0331375
1.696e-06,-0.0329126
1.728e-06,-0.0328715
1.760e-06,-0.0329684
1.792e-06,-0.0328551
1.824e-06,-0.033015
1.856e-06,-0.0330342
1.888e-06,-0.032877
1.920e-06,-0.0329437
1.952e-06,-0.0329318
1.984e-06,-0.0328295
2.016e-06,-0.0328651
2.048e-06,-0.0328825
2.080e-06,-0.0329099
2.112e-06,-0.032983
2.144e-06,-0.0329227
2.176e-06,-0.0328386
2.208e-06,-0.0329456
2.240e-06,-0.0327993
2.272e-06,-0.0328788
2.304e-06,-0.032845
2.336e-06,-0.0328359
2.368e-06,-0.0329748
2.400e-06,-0.0328669
2.432e-06,-0.0328203
2.464e-06,-0.0328843
2.496e-06,-0.0327161
2.528e-06,-0.0327554
2.560e-06,-0.0328212
2.592e-06,-0.0328505
2.624e-06,-0.0327289
2.656e-06,-0.032824
2.688e-06,-0.0328615
2.720e-06,-0.0328194
2.752e-06,-0.0326768
2.784e-06,-0.0328523
2.816e-06,-0.032728
2.848e-06,-0.0327847
2.880e-06,-0.0329236
2.912e-06,-0.0327289
2.944e-06,-0.0328386
2.976e-06,-0.0328167
3.008e-06,-0.0327527
3.040e-06,-0.032696
3.072e-06,-0.0328112
3.104e-06,-0.0327993
3.136e-06,-0.0327755
3.168e-06,-0.0329721
3.200e-06,-0.0327938
3.232e-06,-0.0327006
3.264e-06,-0.0328002
3.296e-06,-0.0327189
3.328e-06,-0.0328139
3.360e-06,-0.0328935
3.392e-06,-0.0328889
3.424e-06,-0.0328477
3.456e-06,-0.0329401
3.488e-06,-0.0328715
3.520e-06,-0.0326933
3.552e-06,-0.032909
3.584e-06,-0.0328395
3.616e-06,-0.0327536
3.648e-06,-0.0329638
3.680e-06,-0.0328423
3.712e-06,-0.0328194
3.744e-06,-0.0329218
3.776e-06,-0.0328331
3.808e-06,-0.0327627
3.840e-06,-0.0329227
3.872e-06,-0.0328249
3.904e-06,-0.0327938
3.936e-06,-0.0328834
3.968e-06,-0.0327765
4.000e-06,-0.032834
4.032e-06,-0.0328688
4.064e-06,-0.032813
4.096e-06,-0.0327253
4.128e-06,-0.0329008
4.160e-06,-0.0327883
4.192e-06,-0.0328514
4.224e-06,-0.0329446
4.256e-06,-0.0328139
4.288e-06,-0.0327033
4.320e-06,-0.0327499
4.352e-06,-0.0328514
4.384e-06,-0.0327838
4.416e-06,-0.0328651
4.448e-06,-0.0329382
4.480e-06,-0.03276
4.512e-06,-0.0328532
4.544e-06,-0.0328505
4.576e-06,-0.0327371
4.608e-06,-0.0329428
4.640e-06,-0.0329291
4.672e-06,-0.032909
4.704e-06,-0.0329218
4.736e-06,-0.0328925
4.768e-06,-0.0329638
4.800e-06,-0.0329949
4.832e-06,-0.032877
4.864e-06,-0.0329839
4.896e-06,-0.0329136
4.928e-06,-0.0328496
4.960e-06,-0.033015
4.992e-06,-0.0329721
5.024e-06,-0.0330086
5.056e-06,-0.0329382
5.088e-06,-0.0328094
5.120e-06,-0.0328002
5.152e-06,-0.0329355
5.184e-06,-0.0329977
5.216e-06,-0.0329446
5.248e-06,-0.0329849
5.280e-06,-0.0328605
5.312e-06,-0.0328322
5.344e-06,-0.0327947
5.376e-06,-0.0327618
5.408e-06,-0.0328423
5.440e-06,-0.0328706
5.472e-06,-0.0328249
5.504e-06,-0.0327664
5.536e-06,-0.0326942
5.568e-06,-0.032834
5.600e-06,-0.0327371
5.632e-06,-0.0327655
5.664e-06,-0.0328788
5.696e-06,-0.0326439
5.728e-06,-0.0328514
5.760e-06,-0.0327463
5.792e-06,-0.0327033
5.824e-06,-0.0327024
5.856e-06,-0.0326823
5.888e-06,-0.0326366
5.920e-06,-0.0327307
5.952e-06,-0.0326457
5.984e-06,-0.0326878
6.016e-06,-0.0327737
6.048e-06,-0.0326841
6.080e-06,-0.0325863
6.112e-06,-0.0327189
6.144e-06,-0.0325836
6.176e-06,-0.0326101
6.208e-06,-0.0327198
6.240e-06,-0.0326128
6.272e-06,-0.0326786
6.304e-06,-0.0325872
6.336e-06,-0.0326604
6.368e-06,-0.0325351
6.400e-06,-0.0325936
6.432e-06,-0.0325827
6.464e-06,-0.0326238
6.496e-06,-0.0327189
6.528e-06,-0.0326476
6.560e-06,-0.032654
6.592e-06,-0.0326659
6.624e-06,-0.0325827
6.656e-06,-0.0325361
6.688e-06,-0.0327801
6.720e-06,-0.0327097
6.752e-06,-0.0326503
6.784e-06,-0.0327143
6.816e-06,-0.032813
6.848e-06,-0.0327554
6.880e-06,-0.0326988
6.912e-06,-0.0328523
6.944e-06,-0.0326796
6.976e-06,-0.0326933
7.008e-06,-0.0328322
7.040e-06,-0.0327573
7.072e-06,-0.0327993
7.104e-06,-0.032803
7.136e-06,-0.0326284
7.168e-06,-0.0327326
7.200e-06,-0.032792
7.232e-06,-0.0326585
7.264e-06,-0.0327435
7.296e-06,-0.0326814
7.328e-06,-0.0326339
7.360e-06,-0.0327399
7.392e-06,-0.0326796
7.424e-06,-0.0325891
7.456e-06,-0.0325589
7.488e-06,-0.0326348
7.520e-06,-0.0326046
7.552e-06,-0.0326074
7.584e-06,-0.0325927
7.616e-06,-0.0326759
7.648e-06,-0.0325589
7.680e-06,-0.0324867
7.712e-06,-0.0325973
7.744e-06,-0.0325754
7.776e-06,-0.0326393
7.808e-06,-0.0326997
7.840e-06,-0.0326128
7.872e-06,-0.0325434
7.904e-06,-0.0326174
7.936e-06,-0.0325808
7.968e-06,-0.032622
8.000e-06,-0.0326403
8.032e-06,-0.032664
8.064e-06,-0.032611
8.096e-06,-0.0326631
8.128e-06,-0.032686
8.160e-06,-0.0325141
8.192e-06,-0.0327381
8.224e-06,-0.0327563
8.256e-06,-0.0326448
8.288e-06,-0.0326549
8.320e-06,-0.0327326
8.352e-06,-0.0327737
8.384e-06,-0.0327655
8.416e-06,-0.0327198
8.448e-06,-0.032622
8.480e-06,-0.0327097
8.512e-06,-0.032707
8.544e-06,-0.0327938
8.576e-06,-0.0327911
8.608e-06,-0.0327856
8.640e-06,-0.0328761
8.672e-06,-0.0328148
8.704e-06,-0.0327271
8.736e-06,-0.0328523
8.768e-06,-0.0327865
8.800e-06,-0.0328441
8.832e-06,-0.0328651
8.864e-06,-0.0328861
8.896e-06,-0.0327847
8.928e-06,-0.0328331
8.960e-06,-0.0328541
8.992e-06,-0.032888
9.024e-06,-0.0328944
9.056e-06,-0.0329172
9.088e-06,-0.0329273
9.120e-06,-0.0328761
9.152e-06,-0.0329593
9.184e-06,-0.0328843
9.216e-06,-0.0328633
9.248e-06,-0.032835
9.280e-06,-0.0328752
9.312e-06,-0.0328121
9.344e-06,-0.0328935
9.376e-06,-0.0329346
9.408e-06,-0.0327984
9.440e-06,-0.032983
9.472e-06,-0.0329099
9.504e-06,-0.0327783
9.536e-06,-0.0329501
9.568e-06,-0.0328066
9.600e-06,-0.0327984
9.632e-06,-0.0328733
9.664e-06,-0.0327637
9.696e-06,-0.0328395
9.728e-06,-0.0327865
9.760e-06,-0.0326448
9.792e-06,-0.0328158
9.824e-06,-0.0327838
9.856e-06,-0.032771
9.888e-06,-0.0327527
9.920e-06,-0.0328587
9.952e-06,-0.0328532
9.984e-06,-0.0328386
1.002e-05,-0.0327655
1.005e-05,-0.0327947
1.008e-05,-0.0328158
1.011e-05,-0.0328587
1.014e-05,-0.0328898
1.018e-05,-0.0329565
1.021e-05,-0.0328423
1.024e-05,-0.0327454
1.027e-05,-0.0328541
1.030e-05,-0.0328222
1.034e-05,-0.0328861
1.037e-05,-0.0329309
1.040e-05,-0.0328359
1.043e-05,-0.0330498
1.046e-05,-0.0329392
1.050e-05,-0.0327691
1.053e-05,-0.0330132
1.056e-05,-0.0329538
1.059e-05,-0.0330296
1.062e-05,-0.0330406
1.066e-05,-0.0329483
1.069e-05,-0.0329565
1.072e-05,-0.0329227
1.075e-05,-0.0329218
1.078e-05,-0.0330699
1.082e-05,-0.0328414
1.085e-05,-0.0329062
1.088e-05,-0.0330114
1.091e-05,-0.0329995
1.094e-05,-0.0330644
1.098e-05,-0.033037
1.101e-05,-0.0329245
1.104e-05,-0.0328624
1.107e-05,-0.0328706
1.110e-05,-0.0327554
1.114e-05,-0.0329428
1.117e-05,-0.0329812
1.120e-05,-0.0328916
1.123e-05,-0.0329044
1.126e-05,-0.0329227
1.130e-05,-0.0328423
1.133e-05,-0.0329273
1.136e-05,-0.032909
1.139e-05,-0.0329291
1.142e-05,-0.0329328
1.146e-05,-0.032813
1.149e-05,-0.0328167
1.152e-05,-0.0329428
1.155e-05,-0.0328295
1.158e-05,-0.032802
1.162e-05,-0.0328944
1.165e-05,-0.0328688
1.168e-05,-0.0328194
1.171e-05,-0.0329446
1.174e-05,-0.0329529
1.178e-05,-0.0329126
1.181e-05,-0.0329218
1.184e-05,-0.0328222
1.187e-05,-0.0327902
1.190e-05,-0.0329072
1.194e-05,-0.0329026
1.197e-05,-0.0328697
1.200e-05,-0.0328112
1.203e-05,-0.0328386
1.206e-05,-0.0328167
1.210e-05,-0.0328395
1.213e-05,-0.0328002
1.216e-05,-0.0327829
1.219e-05,-0.0327929
1.222e-05,-0.032877
1.226e-05,-0.0328011
1.229e-05,-0.0327152
1.232e-05,-0.0327892
1.235e-05,-0.0327344
1.238e-05,-0.0328167
1.242e-05,-0.0329492
1.245e-05,-0.0328039
1.248e-05,-0.0328496
1.251e-05,-0.0329181
1.254e-05,-0.0328258
1.258e-05,-0.0328468
1.261e-05,-0.0329584
1.264e-05,-0.0328286
1.267e-05,-0.0328615
1.270e-05,-0.0329684
1.274e-05,-0.0329181
1.277e-05,-0.0329282
1.280e-05,-0.0329501
1.283e-05,-0.0329273
1.286e-05,-0.0328249
1.290e-05,-0.0329181
1.293e-05,-0.0329264
1.296e-05,-0.0329684
1.299e-05,-0.0329922
1.302e-05,-0.032951
1.306e-05,-0.0328249
1.309e-05,-0.0329794
1.312e-05,-0.0329154
1.315e-05,-0.0328523
1.318e-05,-0.0329711
1.322e-05,-0.0329437
1.325e-05,-0.0329245
1.328e-05,-0.0330022
1.331e-05,-0.0329309
1.334e-05,-0.0327728
1.338e-05,-0.0328441
1.341e-05,-0.0328075
1.344e-05,-0.0327929
1.347e-05,-0.0328697
1.350e-05,-0.0328907
1.354e-05,-0.0328011
1.357e-05,-0.0329684
1.360e-05,-0.0328286
1.363e-05,-0.0328212
1.366e-05,-0.032781
1.370e-05,-0.0328505
1.373e-05,-0.0328788
1.376e-05,-0.0328423
1.379e-05,-0.0328679
1.382e-05,-0.032866
1.386e-05,-0.0327993
1.389e-05,-0.0328011
1.392e-05,-0.0328989
1.395e-05,-0.0328194
1.398e-05,-0.0328231
1.402e-05,-0.0329062
1.405e-05,-0.0328697
1.408e-05,-0.0327408
1.411e-05,-0.0328605
1.414e-05,-0.0327765
1.418e-05,-0.03293
1.421e-05,-0.0328807
1.424e-05,-0.0329181
1.427e-05,-0.0328551
1.430e-05,-0.0328797
1.434e-05,-0.0329474
1.437e-05,-0.0329026
1.440e-05,-0.03292
1.443e-05,-0.0329401
1.446e-05,-0.0327856
1.450e-05,-0.0328861
1.453e-05,-0.0330022
1.456e-05,-0.0328669
1.459e-05,-0.0328779
1.462e-05,-0.0328752
1.466e-05,-0.0329373
1.469e-05,-0.0328377
1.472e-05,-0.0329273
1.475e-05,-0.0330644
1.478e-05,-0.0329593
1.482e-05,-0.032834
1.485e-05,-0.0329556
1.488e-05,-0.0329775
1.491e-05,-0.0328487
1.494e-05,-0.0329839
1.498e-05,-0.0328715
1.501e-05,-0.0328304
1.504e-05,-0.0330196
1.507e-05,-0.0330141
1.510e-05,-0.0329136
1.514e-05,-0.0329812
1.517e-05,-0.0329483
1.520e-05,-0.0328706
1.523e-05,-0.0329821
1.526e-05,-0.0328459
1.530e-05,-0.0330589
1.533e-05,-0.0329748
1.536e-05,-0.0329593
1.539e-05,-0.0330324
1.542e-05,-0.0329657
1.546e-05,-0.0329867
1.549e-05,-0.0329785
1.552e-05,-0.0329657
1.555e-05,-0.0329529
1.558e-05,-0.0330607
1.562e-05,-0.0329364
1.565e-05,-0.0329766
1.568e-05,-0.0329574
1.571e-05,-0.0329346
1.574e-05,-0.0330059
1.578e-05,-0.0329309
1.581e-05,-0.0329154
1.584e-05,-0.0331366
1.587e-05,-0.033005
1.590e-05,-0.032898
1.594e-05,-0.0330315
1.597e-05,-0.0329264
1.600e-05,-0.0329318
1.603e-05,-0.0330086
1.606e-05,-0.0329574
1.610e-05,-0.0330178
1.613e-05,-0.0330068
1.616e-05,-0.0329775
1.619e-05,-0.0330342
1.622e-05,-0.0329209
1.626e-05,-0.0330013
1.629e-05,-0.0330854
1.632e-05,-0.0329456
1.635e-05,-0.0330461
1.638e-05,-0.0329547
1.642e-05,-0.0329099
1.645e-05,-0.0328514
1.648e-05,-0.0328807
1.651e-05,-0.0329565
1.654e-05,-0.0330534
1.658e-05,-0.0328953
1.661e-05,-0.033015
1.664e-05,-0.032962
1.667e-05,-0.0329913
1.670e-05,-0.0329903
1.674e-05,-0.033015
1.677e-05,-0.0328944
1.680e-05,-0.0329309
1.683e-05,-0.0331165
1.686e-05,-0.0330342
1.690e-05,-0.0330141
1.693e-05,-0.0330662
1.696e-05,-0.0330443
1.699e-05,-0.0330324
1.702e-05,-0.0329931
1.706e-05,-0.0330973
1.709e-05,-0.0330589
1.712e-05,-0.0331695
1.715e-05,-0.0331174
1.718e-05,-0.0331466
1.722e-05,-0.0331576
1.725e-05,-0.033196
1.728e-05,-0.0331896
1.731e-05,-0.0331933
1.734e-05,-0.0331485
1.738e-05,-0.0332947
1.741e-05,-0.0332335
1.744e-05,-0.0331905
1.747e-05,-0.0331832
1.750e-05,-0.0331896
1.754e-05,-0.0332381
1.757e-05,-0.0332006
1.760e-05,-0.0331686
1.763e-05,-0.0332179
1.766e-05,-0.0332417
1.770e-05,-0.0332481
1.773e-05,-0.0332902
1.776e-05,-0.033143
1.779e-05,-0.0331503
1.782e-05,-0.0331978
1.786e-05,-0.0331668
1.789e-05,-0.033249
1.792e-05,-0.0332317
1.795e-05,-0.0332143
1.798e-05,-0.0331686
1.802e-05,-0.0332317
1.805e-05,-0.0331713
1.808e-05,-0.0332673
1.811e-05,-0.0332536
1.814e-05,-0.033292
1.818e-05,-0.0332591
1.821e-05,-0.0333112
1.824e-05,-0.0332892
1.827e-05,-0.0332956
1.830e-05,-0.033217
1.834e-05,-0.0333094
1.837e-05,-0.0333551
1.840e-05,-0.0332847
1.843e-05,-0.0333688
1.846e-05,-0.0333806
1.850e-05,-0.0335296
1.853e-05,-0.0332435
1.856e-05,-0.0334538
1.859e-05,-0.033419
1.862e-05,-0.033387
1.866e-05,-0.0336274
1.869e-05,-0.0334556
1.872e-05,-0.0334647
1.875e-05,-0.0334391
1.878e-05,-0.0334492
1.882e-05,-0.0335379
1.885e-05,-0.0335059
1.888e-05,-0.0335095
1.891e-05,-0.0335507
1.894e-05,-0.0335735
1.898e-05,-0.0334547
1.901e-05,-0.0335918
1.904e-05,-0.0335278
1.907e-05,-0.0334903
1.910e-05,-0.033568
1.914e-05,-0.0336009
1.917e-05,-0.0335772
1.920e-05,-0.0336348
1.923e-05,-0.0336741
1.926e-05,-0.0335461
1.930e-05,-0.0336704
1.933e-05,-0.0336567
1.936e-05,-0.0336311
1.939e-05,-0.0336503
1.942e-05,-0.0336604
1.946e-05,-0.0337289
1.949e-05,-0.0337892
1.952e-05,-0.0337828
1.955e-05,-0.033813
1.958e-05,-0.0338176
1.962e-05,-0.033855
1.965e-05,-0.0339958
1.968e-05,-0.0339903
1.971e-05,-0.0340571
1.974e-05,-0.0341055
1.978e-05,-0.034143
1.981e-05,-0.0341731
1.984e-05,-0.0342517
1.987e-05,-0.0343148
1.990e-05,-0.0343697
1.994e-05,-0.0342883
1.997e-05,-0.0344117
2.000e-05,-0.0344355
2.003e-05,-0.0345452
2.006e-05,-0.034494
2.010e-05,-0.0345333
2.013e-05,-0.0345397
2.016e-05,-0.034589
2.019e-05,-0.0346585
2.022e-05,-0.0347353
2.026e-05,-0.0348258
2.029e-05,-0.0348541
2.032e-05,-0.0347974
2.035e-05,-0.0349026
2.038e-05,-0.0349282
2.042e-05,-0.0349748
2.045e-05,-0.0350762
2.048e-05,-0.0351695
2.051e-05,-0.0351814
2.054e-05,-0.0352728
2.058e-05,-0.0353148
2.061e-05,-0.035355
2.064e-05,-0.0355707
2.067e-05,-0.0355113
2.070e-05,-0.0357325
2.074e-05,-0.0358331
2.077e-05,-0.0358852
2.080e-05,-0.0359455
2.083e-05,-0.035962
2.086e-05,-0.0360771
2.090e-05,-0.0363331
2.093e-05,-0.0361631
2.096e-05,-0.0363203
2.099e-05,-0.0366256
2.102e-05,-0.0365927
2.106e-05,-0.0367279
2.109e-05,-0.0368257
2.112e-05,-0.0369455
2.115e-05,-0.0370872
2.118e-05,-0.0370991
2.122e-05,-0.0373011
2.125e-05,-0.0374802
2.128e-05,-0.0376265
2.131e-05,-0.0377983
2.134e-05,-0.0376566
2.138e-05,-0.0378084
2.141e-05,-0.0380725
2.144e-05,-0.0381694
2.147e-05,-0.0382882
2.150e-05,-0.0385661
2.154e-05,-0.0385021
2.157e-05,-0.0387956
2.160e-05,-0.0390469
2.163e-05,-0.039035
2.166e-05,-0.0393111
2.170e-05,-0.0393751
2.173e-05,-0.03945
2.176e-05,-0.0398184
2.179e-05,-0.0398339
2.182e-05,-0.0401392
2.186e-05,-0.0401849
2.189e-05,-0.04029
2.192e-05,-0.0406017
2.195e-05,-0.0407142
2.198e-05,-0.0408065
2.202e-05,-0.0412069
2.205e-05,-0.0412909
2.208e-05,-0.0413476
2.211e-05,-0.0416904
2.214e-05,-0.0417416
2.218e-05,-0.0420907
2.221e-05,-0.042279
2.224e-05,-0.0423924
2.227e-05,-0.0427937
2.230e-05,-0.0428357
2.234e-05,-0.0430277
2.237e-05,-0.0433905
2.240e-05,-0.043396
2.243e-05,-0.0435807
2.246e-05,-0.0438768
2.250e-05,-0.0439527
2.253e-05,-0.0441931
2.256e-05,-0.044449
2.259e-05,-0.0445487
2.262e-05,-0.0447662
2.266e-05,-0.0449024
2.269e-05,-0.0450934
2.272e-05,-0.0454847
2.275e-05,-0.0454499
2.278e-05,-0.0457689
2.282e-05,-0.045992
2.285e-05,-0.0461574
2.288e-05,-0.0464572
2.291e-05,-0.0464846
2.294e-05,-0.0467013
2.298e-05,-0.0469216
2.301e-05,-0.0470623
2.304e-05,-0.047353
2.307e-05,-0.0476693
2.310e-05,-0.0476821
2.314e-05,-0.0479471
2.317e-05,-0.048162
2.320e-05,-0.0483576
2.323e-05,-0.0486757
2.326e-05,-0.0487908
2.330e-05,-0.0490193
2.333e-05,-0.049257
2.336e-05,-0.0495303
2.339e-05,-0.0497268
2.342e-05,-0.050001
2.346e-05,-0.0500504
2.349e-05,-0.0502606
2.352e-05,-0.0505349
2.355e-05,-0.0507085
2.358e-05,-0.0509444
2.362e-05,-0.0511912
2.365e-05,-0.0513392
2.368e-05,-0.0514608
2.371e-05,-0.0516244
2.374e-05,-0.0519471
2.378e-05,-0.0520842
2.381e-05,-0.0522862
2.384e-05,-0.0525403
2.387e-05,-0.0527405
2.390e-05,-0.0529717
2.394e-05,-0.0530339
2.397e-05,-0.0532569
2.400e-05,-0.0534754
2.403e-05,-0.0536765
2.406e-05,-0.0537953
2.410e-05,-0.0540467
2.413e-05,-0.054224
2.416e-05,-0.0543319
2.419e-05,-0.0545906
2.422e-05,-0.0547048
2.426e-05,-0.0548364
2.429e-05,-0.0551344
2.432e-05,-0.0551527
2.435e-05,-0.0553968
2.438e-05,-0.0554507
2.442e-05,-0.0557295
2.445e-05,-0.0559351
2.448e-05,-0.0559406
2.451e-05,-0.0560796
2.454e-05,-0.0562386
2.458e-05,-0.0564223
2.461e-05,-0.0565073
2.464e-05,-0.0566307
2.467e-05,-0.0567889
2.470e-05,-0.0567615
2.474e-05,-0.0569132
2.477e-05,-0.0570567
2.480e-05,-0.0571106
2.483e-05,-0.057255
2.486e-05,-0.057234
2.490e-05,-0.057309
2.493e-05,-0.0573803
2.496e-05,-0.0574936
2.499e-05,-0.0576225
2.502e-05,-0.0575576
2.506e-05,-0.0576993
2.509e-05,-0.0577157
2.512e-05,-0.0577011
2.515e-05,-0.0579004
2.518e-05,-0.0578931
2.522e-05,-0.0579982
2.525e-05,-0.0579561
2.528e-05,-0.0579177
2.531e-05,-0.0579726
2.534e-05,-0.0580064
2.538e-05,-0.0580293
2.541e-05,-0.0580475
2.544e-05,-0.0580768
2.547e-05,-0.0580302
2.550e-05,-0.0579589
2.554e-05,-0.058117
2.557e-05,-0.0580548
2.560e-05,-0.0581161
2.563e-05,-0.0581179
2.566e-05,-0.0580466
2.570e-05,-0.0580622
2.573e-05,-0.0579433
2.576e-05,-0.0579461
2.579e-05,-0.0579278
2.582e-05,-0.0578236
2.586e-05,-0.0578135
2.589e-05,-0.0576984
2.592e-05,-0.0576508
2.595e-05,-0.0575969
2.598e-05,-0.0574708
2.602e-05,-0.0575567
2.605e-05,-0.0572989
2.608e-05,-0.0571655
2.611e-05,-0.0571755
2.614e-05,-0.0570119
2.618e-05,-0.056819
2.621e-05,-0.0568684
2.624e-05,-0.0566956
2.627e-05,-0.0563849
2.630e-05,-0.0563602
2.634e-05,-0.056277
2.637e-05,-0.0561015
2.640e-05,-0.0559324
2.643e-05,-0.0558913
2.646e-05,-0.0555997
2.650e-05,-0.0555275
2.653e-05,-0.0552542
2.656e-05,-0.055192
2.659e-05,-0.0550357
2.662e-05,-0.0547423
2.666e-05,-0.0546097
2.669e-05,-0.0544379
2.672e-05,-0.0541472
2.675e-05,-0.0541445
2.678e-05,-0.0539123
2.682e-05,-0.0535403
2.685e-05,-0.0534562
2.688e-05,-0.0531628
2.691e-05,-0.0529215
2.694e-05,-0.0529215
2.698e-05,-0.052501
2.701e-05,-0.0522825
2.704e-05,-0.0521811
2.707e-05,-0.0518145
2.710e-05,-0.051618
2.714e-05,-0.0514818
2.717e-05,-0.0511838
2.720e-05,-0.0508913
2.723e-05,-0.0507405
2.726e-05,-0.0505477
2.730e-05,-0.0501939
2.733e-05,-0.0500276
2.736e-05,-0.0497542
2.739e-05,-0.0495385
2.742e-05,-0.0492351
2.746e-05,-0.0490532
2.749e-05,-0.0488246
2.752e-05,-0.0486034
2.755e-05,-0.0483457
2.758e-05,-0.048012
2.762e-05,-0.0478174
2.765e-05,-0.0476574
2.768e-05,-0.0474033
2.771e-05,-0.0471866
2.774e-05,-0.0468978
2.778e-05,-0.0467369
2.781e-05,-0.0464581
2.784e-05,-0.046173
2.787e-05,-0.0459307
2.790e-05,-0.0457854
2.794e-05,-0.0455103
2.797e-05,-0.0453037
2.800e-05,-0.0451072
2.803e-05,-0.0447589
2.806e-05,-0.0445176
2.810e-05,-0.0443064
2.813e-05,-0.0440743
2.816e-05,-0.0439847
2.819e-05,-0.0436401
2.822e-05,-0.0433567
2.826e-05,-0.0431785
2.829e-05,-0.0429509
2.832e-05,-0.0427141
2.835e-05,-0.042535
2.838e-05,-0.0423686
2.842e-05,-0.04212
2.845e-05,-0.0416794
2.848e-05,-0.0417352
2.851e-05,-0.0415359
2.854e-05,-0.0411822
2.858e-05,-0.0411337
2.861e-05,-0.0407836
2.864e-05,-0.0406273
2.867e-05,-0.0403796
2.870e-05,-0.0402489
2.874e-05,-0.0401191
2.877e-05,-0.0398065
2.880e-05,-0.03978
2.883e-05,-0.0395213
2.886e-05,-0.0392919
2.890e-05,-0.0391849
2.893e-05,-0.0390506
2.896e-05,-0.038812
2.899e-05,-0.0387636
2.902e-05,-0.0385707
2.906e-05,-0.0384052
2.909e-05,-0.0382206
2.912e-05,-0.0380497
2.915e-05,-0.0379171
2.918e-05,-0.0377974
2.922e-05,-0.0376905
2.925e-05,-0.0375076
2.928e-05,-0.0374107
2.931e-05,-0.0372142
2.934e-05,-0.0370342
2.938e-05,-0.0369912
2.941e-05,-0.0369446
2.944e-05,-0.0367672
2.947e-05,-0.0366576
2.950e-05,-0.0365022
2.954e-05,-0.0364199
2.957e-05,-0.0364126
2.960e-05,-0.036249
2.963e-05,-0.0361329
2.966e-05,-0.0359976
2.970e-05,-0.0358395
2.973e-05,-0.0357069
2.976e-05,-0.0358157
2.979e-05,-0.0356
2.982e-05,-0.0355589
2.986e-05,-0.035515
2.989e-05,-0.0352673
2.992e-05,-0.0352188
2.995e-05,-0.0352051
2.998e-05,-0.0351338
3.002e-05,-0.0349995
3.005e-05,-0.034898
3.008e-05,-0.0349675
3.011e-05,-0.0347673
3.014e-05,-0.0348002
3.018e-05,-0.0346658
3.021e-05,-0.0345022
3.024e-05,-0.0345479
3.027e-05,-0.034419
3.030e-05,-0.0343386
3.034e-05,-0.0343404
3.037e-05,-0.0341996
3.040e-05,-0.0341284
3.043e-05,-0.0341567
3.046e-05,-0.0340159
3.050e-05,-0.0340689
3.053e-05,-0.0338779
3.056e-05,-0.0338377
3.059e-05,-0.0337965
3.062e-05,-0.0337225
3.066e-05,-0.033739
3.069e-05,-0.0337006
3.072e-05,-0.0335406
3.075e-05,-0.0336119
3.078e-05,-0.0335342
3.082e-05,-0.0335717
3.085e-05,-0.0335589
3.088e-05,-0.0334858
3.091e-05,-0.0334245
3.094e-05,-0.0332527
3.098e-05,-0.0333797
3.101e-05,-0.0334976
3.104e-05,-0.0333157
3.107e-05,-0.0331567
3.110e-05,-0.0333231
3.114e-05,-0.0332527
3.117e-05,-0.0332499
3.120e-05,-0.0332838
3.123e-05,-0.0330964
3.126e-05,-0.0331914
3.130e-05,-0.0331796
3.133e-05,-0.03309
3.136e-05,-0.0332536
3.139e-05,-0.0331832
3.142e-05,-0.0330616
3.146e-05,-0.0331384
3.149e-05,-0.0330754
3.152e-05,-0.0331713
3.155e-05,-0.0331594
3.158e-05,-0.0330223
3.162e-05,-0.033069
3.165e-05,-0.0330598
3.168e-05,-0.0331302
3.171e-05,-0.0331275
3.174e-05,-0.0330562
3.178e-05,-0.033069
3.181e-05,-0.0330013
3.184e-05,-0.0330507
3.187e-05,-0.0331402
3.190e-05,-0.0329986
3.194e-05,-0.033154
3.197e-05,-0.033069
3.200e-05,-0.0329501
3.203e-05,-0.0329839
3.206e-05,-0.033069
3.210e-05,-0.0330324
3.213e-05,-0.0329821
3.216e-05,-0.0330013
3.219e-05,-0.0328999
3.222e-05,-0.0328377
3.226e-05,-0.0329986
3.229e-05,-0.0328916
3.232e-05,-0.0328633
3.235e-05,-0.0329364
3.238e-05,-0.0328432
3.242e-05,-0.0328889
3.245e-05,-0.032919
3.248e-05,-0.0327966
3.251e-05,-0.0328139
3.254e-05,-0.0329026
3.258e-05,-0.0328002
3.261e-05,-0.0329611
3.264e-05,-0.0328276
3.267e-05,-0.0328377
3.270e-05,-0.0328167
3.274e-05,-0.0329117
3.277e-05,-0.0328432
3.280e-05,-0.0328889
3.283e-05,-0.0329419
3.286e-05,-0.0328103
3.290e-05,-0.0329008
3.293e-05,-0.0329428
3.296e-05,-0.0329693
3.299e-05,-0.0328989
3.302e-05,-0.0329428
3.306e-05,-0.0328834
3.309e-05,-0.0329876
3.312e-05,-0.0330324
3.315e-05,-0.0330388
3.318e-05,-0.0330205
3.322e-05,-0.0328971
3.325e-05,-0.0330022
3.328e-05,-0.0329721
3.331e-05,-0.0329958
3.334e-05,-0.0329355
3.338e-05,-0.0329163
3.341e-05,-0.0331585
3.344e-05,-0.0329465
3.347e-05,-0.0329154
3.350e-05,-0.0330827
3.354e-05,-0.0329666
3.357e-05,-0.032813
3.360e-05,-0.0330982
3.363e-05,-0.0329739
3.366e-05,-0.0329647
3.370e-05,-0.0331302
3.373e-05,-0.0329401
3.376e-05,-0.0329602
3.379e-05,-0.0330991
3.382e-05,-0.0328779
3.386e-05,-0.0331393
3.389e-05,-0.0329593
3.392e-05,-0.0329501
3.395e-05,-0.0330461
3.398e-05,-0.0328752
3.402e-05,-0.0329456
3.405e-05,-0.0329328
3.408e-05,-0.0329757
3.411e-05,-0.0328615
3.414e-05,-0.0329181
3.418e-05,-0.0329684
3.421e-05,-0.0329428
3.424e-05,-0.0329657
3.427e-05,-0.0329903
3.430e-05,-0.0328496
3.434e-05,-0.0329209
3.437e-05,-0.0330772
3.440e-05,-0.0329053
3.443e-05,-0.0330242
3.446e-05,-0.032888
3.450e-05,-0.0330324
3.453e-05,-0.03292
3.456e-05,-0.0329163
3.459e-05,-0.0330223
3.462e-05,-0.0329218
3.466e-05,-0.0328441
3.469e-05,-0.0331137
3.472e-05,-0.0329702
3.475e-05,-0.0329584
3.478e-05,-0.0328989
3.482e-05,-0.0328295
3.485e-05,-0.033068
3.488e-05,-0.0330424
3.491e-05,-0.0329721
3.494e-05,-0.0331576
3.498e-05,-0.0329456
3.501e-05,-0.0329913
3.504e-05,-0.0332307
3.507e-05,-0.033132
3.510e-05,-0.0330644
3.514e-05,-0.0331037
3.517e-05,-0.0330406
3.520e-05,-0.0330927
3.523e-05,-0.0331174
3.526e-05,-0.0330653
3.530e-05,-0.0332042
3.533e-05,-0.0330662
3.536e-05,-0.0330571
3.539e-05,-0.0330653
3.542e-05,-0.0330717
3.546e-05,-0.0330141
3.549e-05,-0.0330013
3.552e-05,-0.0331201
3.555e-05,-0.0329565
3.558e-05,-0.032994
3.562e-05,-0.0330881
3.565e-05,-0.0328487
3.568e-05,-0.0330607
3.571e-05,-0.0329977
3.574e-05,-0.0328715
3.578e-05,-0.0330717
3.581e-05,-0.0329538
3.584e-05,-0.0329565
3.587e-05,-0.0330022
3.590e-05,-0.0328715
3.594e-05,-0.0329803
3.597e-05,-0.0330059
3.600e-05,-0.0328578
3.603e-05,-0.0329282
3.606e-05,-0.0329611
3.610e-05,-0.0330315
3.613e-05,-0.032909
3.616e-05,-0.0329702
3.619e-05,-0.0329227
3.622e-05,-0.0328733
3.626e-05,-0.033015
3.629e-05,-0.0330242
3.632e-05,-0.0329126
3.635e-05,-0.032951
3.638e-05,-0.0329181
3.642e-05,-0.0329017
3.645e-05,-0.0330169
3.648e-05,-0.0329053
3.651e-05,-0.0330114
3.654e-05,-0.0329264
3.658e-05,-0.0328889
3.661e-05,-0.0328605
3.664e-05,-0.0330013
3.667e-05,-0.0328222
3.670e-05,-0.0329949
3.674e-05,-0.0329108
3.677e-05,-0.0328121
3.680e-05,-0.0329181
3.683e-05,-0.0328971
3.686e-05,-0.0328944
3.690e-05,-0.0330077
3.693e-05,-0.0329721
3.696e-05,-0.032877
3.699e-05,-0.0329913
3.702e-05,-0.0329785
3.706e-05,-0.0330516
3.709e-05,-0.0330041
3.712e-05,-0.0329245
3.715e-05,-0.0329913
3.718e-05,-0.0330891
3.722e-05,-0.0331137
3.725e-05,-0.0330086
3.728e-05,-0.0330507
3.731e-05,-0.033153
3.734e-05,-0.0331412
3.738e-05,-0.0331119
3.741e-05,-0.0332636
3.744e-05,-0.0330927
3.747e-05,-0.0331658
3.750e-05,-0.0331576
3.754e-05,-0.0332015
3.757e-05,-0.0332847
3.760e-05,-0.0332024
3.763e-05,-0.0331348
3.766e-05,-0.0332207
3.770e-05,-0.0331722
3.773e-05,-0.0331357
3.776e-05,-0.0331494
3.779e-05,-0.0331969
3.782e-05,-0.0329675
3.786e-05,-0.0331732
3.789e-05,-0.0330973
3.792e-05,-0.0330013
3.795e-05,-0.0330845
3.798e-05,-0.0329355
3.802e-05,-0.0329373
3.805e-05,-0.0330653
3.808e-05,-0.0328505
3.811e-05,-0.0330772
3.814e-05,-0.0329227
3.818e-05,-0.0327984
3.821e-05,-0.0328907
3.824e-05,-0.0329227
3.827e-05,-0.0329117
3.830e-05,-0.0328651
3.834e-05,-0.0328752
3.837e-05,-0.0328541
3.840e-05,-0.0328194
3.843e-05,-0.0328743
3.846e-05,-0.0329062
3.850e-05,-0.0328706
3.853e-05,-0.0328624
3.856e-05,-0.0329053
3.859e-05,-0.0328395
3.862e-05,-0.032951
3.866e-05,-0.0329501
3.869e-05,-0.0328935
3.872e-05,-0.0329401
3.875e-05,-0.0329419
3.878e-05,-0.0329584
3.882e-05,-0.0329593
3.885e-05,-0.0328898
3.888e-05,-0.0328377
3.891e-05,-0.0329264
3.894e-05,-0.0328551
3.898e-05,-0.0328267
3.901e-05,-0.0329949
3.904e-05,-0.0328267
3.907e-05,-0.0328203
3.910e-05,-0.0329126
3.914e-05,-0.03293
3.917e-05,-0.0329008
3.920e-05,-0.0329401
3.923e-05,-0.0327655
3.926e-05,-0.0328944
3.930e-05,-0.0328669
3.933e-05,-0.0329977
3.936e-05,-0.032834
3.939e-05,-0.0329163
3.942e-05,-0.032951
3.946e-05,-0.0328496
3.949e-05,-0.0329757
3.952e-05,-0.0329666
3.955e-05,-0.032845
3.958e-05,-0.0328861
3.962e-05,-0.0329977
3.965e-05,-0.0329346
3.968e-05,-0.0330315
3.971e-05,-0.0329309
3.974e-05,-0.0329456
3.978e-05,-0.0328551
3.981e-05,-0.0330388
3.984e-05,-0.0330324
3.987e-05,-0.032973
3.990e-05,-0.0330324
3.994e-05,-0.0329492
3.997e-05,-0.0329711
4.000e-05,-0.0330616
4.003e-05,-0.0329711
4.006e-05,-0.0330827
4.010e-05,-0.0330315
4.013e-05,-0.032962
4.016e-05,-0.0330141
4.019e-05,-0.0330324
4.022e-05,-0.0331192
4.026e-05,-0.0330059
4.029e-05,-0.0330498
4.032e-05,-0.0330845
4.035e-05,-0.0330105
4.038e-05,-0.0331073
4.042e-05,-0.0331631
4.045e-05,-0.0330635
4.048e-05,-0.0330534
4.051e-05,-0.0331137
4.054e-05,-0.033036
4.058e-05,-0.0332326
4.061e-05,-0.0330872
4.064e-05,-0.0331019
4.067e-05,-0.0331439
4.070e-05,-0.0330927
4.074e-05,-0.0331055
4.077e-05,-0.0331028
4.080e-05,-0.0331083
4.083e-05,-0.0330278
4.086e-05,-0.0330772
4.090e-05,-0.0330964
4.093e-05,-0.033164
4.096e-05,-0.033132
4.099e-05,-0.0330909
4.102e-05,-0.0330845
4.106e-05,-0.0331211
4.109e-05,-0.0329958
4.112e-05,-0.0331658
4.115e-05,-0.033079
4.118e-05,-0.0329309
4.122e-05,-0.0330635
4.125e-05,-0.0329922
4.128e-05,-0.0329593
4.131e-05,-0.0330415
4.134e-05,-0.0330031
4.138e-05,-0.0328935
4.141e-05,-0.0329876
4.144e-05,-0.0329337
4.147e-05,-0.0331064
4.150e-05,-0.0329876
4.154e-05,-0.0329574
4.157e-05,-0.033047
4.160e-05,-0.0331192
4.163e-05,-0.0330845
4.166e-05,-0.0330397
4.170e-05,-0.0330717
4.173e-05,-0.0330031
4.176e-05,-0.0331768
4.179e-05,-0.0331393
4.182e-05,-0.0330671
4.186e-05,-0.03309
4.189e-05,-0.0330955
4.192e-05,-0.0331549
4.195e-05,-0.0332563
4.198e-05,-0.0331905
4.202e-05,-0.0332371
4.205e-05,-0.0331567
4.208e-05,-0.0332006
4.211e-05,-0.0330763
4.214e-05,-0.0332463
4.218e-05,-0.0332874
4.221e-05,-0.033217
4.224e-05,-0.0332006
4.227e-05,-0.0332582
4.230e-05,-0.0331192
4.234e-05,-0.0331503
4.237e-05,-0.033239
4.240e-05,-0.0331384
4.243e-05,-0.0331466
4.246e-05,-0.0331869
4.250e-05,-0.0332198
4.253e-05,-0.0331128
4.256e-05,-0.0332179
4.259e-05,-0.0330754
4.262e-05,-0.0330306
4.266e-05,-0.033196
4.269e-05,-0.0331147
4.272e-05,-0.0331613
4.275e-05,-0.0331137
4.278e-05,-0.0330598
4.282e-05,-0.0331284
4.285e-05,-0.0331238
4.288e-05,-0.0330854
4.291e-05,-0.0330918
4.294e-05,-0.0329867
4.298e-05,-0.0330379
4.301e-05,-0.0330287
4.304e-05,-0.0330351
4.307e-05,-0.0330223
4.310e-05,-0.0330059
4.314e-05,-0.0329264
4.317e-05,-0.0330434
4.320e-05,-0.033015
4.323e-05,-0.0330945
4.326e-05,-0.0330223
4.330e-05,-0.032941
4.333e-05,-0.0329382
4.336e-05,-0.0329803
4.339e-05,-0.0330945
4.342e-05,-0.0330845
4.346e-05,-0.0329401
4.349e-05,-0.0329465
4.352e-05,-0.0329282
4.355e-05,-0.0329666
4.358e-05,-0.0331485
4.362e-05,-0.0329529
4.365e-05,-0.0330397
4.368e-05,-0.0328825
4.371e-05,-0.0330315
4.374e-05,-0.033058
4.378e-05,-0.0330086
4.381e-05,-0.0330516
4.384e-05,-0.0329748
4.387e-05,-0.0330159
4.390e-05,-0.0330315
4.394e-05,-0.0330461
4.397e-05,-0.0330836
4.400e-05,-0.0330799
4.403e-05,-0.0330909
4.406e-05,-0.0330717
4.410e-05,-0.0330178
4.413e-05,-0.0331174
4.416e-05,-0.033036
4.419e-05,-0.0330022
4.422e-05,-0.0330635
4.426e-05,-0.0331092
4.429e-05,-0.0330955
4.432e-05,-0.0331028
4.435e-05,-0.0330607
4.438e-05,-0.0330443
4.442e-05,-0.0330443
4.445e-05,-0.0331046
4.448e-05,-0.0330763
4.451e-05,-0.0330114
4.454e-05,-0.0330927
4.458e-05,-0.0330095
4.461e-05,-0.0330744
4.464e-05,-0.0332545
4.467e-05,-0.0330013
4.470e-05,-0.0330068
4.474e-05,-0.0331137
4.477e-05,-0.0329501
4.480e-05,-0.0331658
4.483e-05,-0.0332307
4.486e-05,-0.0330205
4.490e-05,-0.0329044
4.493e-05,-0.0330105
4.496e-05,-0.0330644
4.499e-05,-0.0330187
4.502e-05,-0.0331037
4.506e-05,-0.0330123
4.509e-05,-0.0329803
4.512e-05,-0.0329913
4.515e-05,-0.0330488
4.518e-05,-0.0330342
4.522e-05,-0.0330031
4.525e-05,-0.0329711
4.528e-05,-0.0329684
4.531e-05,-0.0330388
4.534e-05,-0.0330973
4.538e-05,-0.0330379
4.541e-05,-0.0330507
4.544e-05,-0.0329995
4.547e-05,-0.0330443
4.550e-05,-0.0330086
4.554e-05,-0.0331128
4.557e-05,-0.0330817
4.560e-05,-0.0330004
4.563e-05,-0.0330635
4.566e-05,-0.0330306
4.570e-05,-0.0331402
4.573e-05,-0.0330607
4.576e-05,-0.0330013
4.579e-05,-0.0330452
4.582e-05,-0.0330552
4.586e-05,-0.03309
4.589e-05,-0.0331485
4.592e-05,-0.0331722
4.595e-05,-0.0329922
4.598e-05,-0.0329876
4.602e-05,-0.0331064
4.605e-05,-0.033058
4.608e-05,-0.0331238
4.611e-05,-0.0330726
4.614e-05,-0.0330223
4.618e-05,-0.0330662
4.621e-05,-0.0329346
4.624e-05,-0.0329995
4.627e-05,-0.0330461
4.630e-05,-0.032919
4.634e-05,-0.0330041
4.637e-05,-0.0330324
4.640e-05,-0.0330543
4.643e-05,-0.0330836
4.646e-05,-0.0329949
4.650e-05,-0.0329538
4.653e-05,-0.0330754
4.656e-05,-0.0329574
4.659e-05,-0.0331247
4.662e-05,-0.0331613
4.666e-05,-0.0328578
4.669e-05,-0.0330571
4.672e-05,-0.0330296
4.675e-05,-0.0329282
4.678e-05,-0.0331412
4.682e-05,-0.0330945
4.685e-05,-0.0329117
4.688e-05,-0.0330991
4.691e-05,-0.0330945
4.694e-05,-0.0331201
4.698e-05,-0.0331549
4.701e-05,-0.0330626
4.704e-05,-0.0330507
4.707e-05,-0.0330717
4.710e-05,-0.0330845
4.714e-05,-0.033132
4.717e-05,-0.0331302
4.720e-05,-0.0330936
4.723e-05,-0.033079
4.726e-05,-0.032951
4.730e-05,-0.0332317
4.733e-05,-0.0330973
4.736e-05,-0.033069
4.739e-05,-0.0331713
4.742e-05,-0.0330891
4.746e-05,-0.0331339
4.749e-05,-0.0332079
4.752e-05,-0.0330342
4.755e-05,-0.0331092
4.758e-05,-0.0329995
4.762e-05,-0.0331722
4.765e-05,-0.033132
4.768e-05,-0.0331402
4.771e-05,-0.0330699
4.774e-05,-0.0330626
4.778e-05,-0.0330114
4.781e-05,-0.0330105
4.784e-05,-0.0332216
4.787e-05,-0.0330808
4.790e-05,-0.0330763
4.794e-05,-0.0329693
4.797e-05,-0.0331174
4.800e-05,-0.0331658
4.803e-05,-0.0330388
4.806e-05,-0.0329803
4.810e-05,-0.0330351
4.813e-05,-0.033015
4.816e-05,-0.0331
4.819e-05,-0.0331841
4.822e-05,-0.0330662
4.826e-05,-0.0329291
4.829e-05,-0.0330424
4.832e-05,-0.0330598
4.835e-05,-0.0330836
4.838e-05,-0.0331293
4.842e-05,-0.0330872
4.845e-05,-0.0330552
4.848e-05,-0.0330333
4.851e-05,-0.0330708
4.854e-05,-0.0330635
4.858e-05,-0.0331229
4.861e-05,-0.0330507
4.864e-05,-0.0330013
4.867e-05,-0.0331128
4.870e-05,-0.0331329
4.874e-05,-0.0330982
4.877e-05,-0.0331951
4.880e-05,-0.0330205
4.883e-05,-0.0331905
4.886e-05,-0.0330635
4.890e-05,-0.033154
4.893e-05,-0.0331732
4.896e-05,-0.0331183
4.899e-05,-0.0331366
4.902e-05,-0.0331786
4.906e-05,-0.0331009
4.909e-05,-0.0332673
4.912e-05,-0.0331503
4.915e-05,-0.0330141
4.918e-05,-0.0332381
4.922e-05,-0.0330735
4.925e-05,-0.0332006
4.928e-05,-0.0331366
4.931e-05,-0.033143
4.934e-05,-0.0330662
4.938e-05,-0.033111
4.941e-05,-0.0332472
4.944e-05,-0.033111
4.947e-05,-0.0331741
4.950e-05,-0.0330909
4.954e-05,-0.0330973
4.957e-05,-0.0331402
4.960e-05,-0.0331476
4.963e-05,-0.0330936
4.966e-05,-0.0329839
4.970e-05,-0.0330525
4.973e-05,-0.0330589
4.976e-05,-0.0331402
4.979e-05,-0.0331375
4.982e-05,-0.0330781
4.986e-05,-0.0329602
4.989e-05,-0.0330105
4.992e-05,-0.033122
4.995e-05,-0.0331375
4.998e-05,-0.0332106
5.002e-05,-0.0331503
5.005e-05,-0.0330616
5.008e-05,-0.0331147
5.011e-05,-0.0331924
5.014e-05,-0.0332472
5.018e-05,-0.0332271
5.021e-05,-0.0332271
5.024e-05,-0.033249
5.027e-05,-0.0332764
5.030e-05,-0.0332381
5.034e-05,-0.0333441
5.037e-05,-0.0332865
5.040e-05,-0.0331485
5.043e-05,-0.0332481
5.046e-05,-0.0332975
5.050e-05,-0.0333322
5.053e-05,-0.0332728
5.056e-05,-0.0333185
5.059e-05,-0.0331896
5.062e-05,-0.0332015
5.066e-05,-0.0332636
5.069e-05,-0.0331256
5.072e-05,-0.0332993
5.075e-05,-0.0332079
5.078e-05,-0.0331796
5.082e-05,-0.0332673
5.085e-05,-0.0332728
5.088e-05,-0.0330909
5.091e-05,-0.0330424
5.094e-05,-0.0331695
5.098e-05,-0.0330324
5.101e-05,-0.0331375
5.104e-05,-0.0332746
5.107e-05,-0.0329565
5.110e-05,-0.0329958
5.114e-05,-0.0330927
5.117e-05,-0.0331348
5.120e-05,-0.0331073
5.123e-05,-0.0331439
5.126e-05,-0.0332719
5.130e-05,-0.0330827
5.133e-05,-0.0331265
5.136e-05,-0.0331375
5.139e-05,-0.0332179
5.142e-05,-0.0332225
5.146e-05,-0.0330169
5.149e-05,-0.0331192
5.152e-05,-0.0331229
5.155e-05,-0.033217
5.158e-05,-0.0332326
5.162e-05,-0.0330214
5.165e-05,-0.0331
5.168e-05,-0.0332042
5.171e-05,-0.0330022
5.174e-05,-0.033186
5.178e-05,-0.0331805
5.181e-05,-0.0330754
5.184e-05,-0.0332993
5.187e-05,-0.0331302
5.190e-05,-0.0331786
5.194e-05,-0.0330891
5.197e-05,-0.0330964
5.200e-05,-0.0330708
5.203e-05,-0.0329949
5.206e-05,-0.0331987
5.210e-05,-0.0331549
5.213e-05,-0.0330973
5.216e-05,-0.0330507
5.219e-05,-0.0330516
5.222e-05,-0.0330424
5.226e-05,-0.0330754
5.229e-05,-0.0331357
5.232e-05,-0.0331137
5.235e-05,-0.0330726
5.238e-05,-0.0330909
5.242e-05,-0.0330562
5.245e-05,-0.0330296
5.248e-05,-0.0331183
5.251e-05,-0.0330379
5.254e-05,-0.0330388
5.258e-05,-0.0331768
5.261e-05,-0.0331668
5.264e-05,-0.0331064
5.267e-05,-0.0331448
5.270e-05,-0.0329584
5.274e-05,-0.0330827
5.277e-05,-0.0332051
5.280e-05,-0.033069
5.283e-05,-0.03327
5.286e-05,-0.0330562
5.290e-05,-0.0331384
5.293e-05,-0.0331722
5.296e-05,-0.0330881
5.299e-05,-0.0332646
5.302e-05,-0.0331878
5.306e-05,-0.0330772
5.309e-05,-0.0332417
5.312e-05,-0.03326
5.315e-05,-0.0332381
5.318e-05,-0.0332435
5.322e-05,-0.0330799
5.325e-05,-0.03309
5.328e-05,-0.0332307
5.331e-05,-0.0331869
5.334e-05,-0.0331549
5.338e-05,-0.0332115
5.341e-05,-0.0331083
5.344e-05,-0.0331028
5.347e-05,-0.0332947
5.350e-05,-0.0332033
5.354e-05,-0.0331247
5.357e-05,-0.0332143
5.360e-05,-0.0331375
5.363e-05,-0.0332207
5.366e-05,-0.0333066
5.370e-05,-0.0331028
5.373e-05,-0.0331997
5.376e-05,-0.0331083
5.379e-05,-0.0330644
5.382e-05,-0.0333084
5.386e-05,-0.0331914
5.389e-05,-0.0332088
5.392e-05,-0.0331549
5.395e-05,-0.0332234
5.398e-05,-0.0330598
5.402e-05,-0.0331878
5.405e-05,-0.0331576
5.408e-05,-0.0330589
5.411e-05,-0.0330333
5.414e-05,-0.0330333
5.418e-05,-0.0331512
5.421e-05,-0.0331311
5.424e-05,-0.0330891
5.427e-05,-0.0329849
5.430e-05,-0.0329026
5.434e-05,-0.0330708
5.437e-05,-0.0329602
5.440e-05,-0.0330635
5.443e-05,-0.0330397
5.446e-05,-0.0329986
5.450e-05,-0.0329117
5.453e-05,-0.0329227
5.456e-05,-0.0330278
5.459e-05,-0.033037
5.462e-05,-0.0329474
5.466e-05,-0.0330781
5.469e-05,-0.03309
5.472e-05,-0.0331293
5.475e-05,-0.0330817
5.478e-05,-0.0330406
5.482e-05,-0.0330589
5.485e-05,-0.0330891
5.488e-05,-0.0330086
5.491e-05,-0.0332655
5.494e-05,-0.0333084
5.498e-05,-0.0331174
5.501e-05,-0.0331448
5.504e-05,-0.0332472
5.507e-05,-0.0331658
5.510e-05,-0.0332527
5.514e-05,-0.0332225
5.517e-05,-0.0331841
5.520e-05,-0.0332326
5.523e-05,-0.0331887
5.526e-05,-0.0332655
5.530e-05,-0.0332088
5.533e-05,-0.0331814
5.536e-05,-0.033122
5.539e-05,-0.0331695
5.542e-05,-0.0332911
5.546e-05,-0.0332527
5.549e-05,-0.0331987
5.552e-05,-0.0331567
5.555e-05,-0.0331942
5.558e-05,-0.0331658
5.562e-05,-0.0332408
5.565e-05,-0.0331924
5.568e-05,-0.033154
5.571e-05,-0.0332344
5.574e-05,-0.0332591
5.578e-05,-0.0331668
5.581e-05,-0.0332902
5.584e-05,-0.0332033
5.587e-05,-0.0330918
5.590e-05,-0.0331521
5.594e-05,-0.0331805
5.597e-05,-0.0332115
5.600e-05,-0.0332828
5.603e-05,-0.0331658
5.606e-05,-0.0332764
5.610e-05,-0.0331558
5.613e-05,-0.0332591
5.616e-05,-0.0332691
5.619e-05,-0.0332051
5.622e-05,-0.0332006
5.626e-05,-0.0332335
5.629e-05,-0.0331814
5.632e-05,-0.0332243
5.635e-05,-0.0331192
5.638e-05,-0.0331238
5.642e-05,-0.033132
5.645e-05,-0.0331558
5.648e-05,-0.0331668
5.651e-05,-0.0332728
5.654e-05,-0.0331293
5.658e-05,-0.0330845
5.661e-05,-0.0331201
5.664e-05,-0.0329638
5.667e-05,-0.033143
5.670e-05,-0.0333075
5.674e-05,-0.0330296
5.677e-05,-0.0331083
5.680e-05,-0.0331019
5.683e-05,-0.0330964
5.686e-05,-0.0332225
5.690e-05,-0.033005
5.693e-05,-0.0331147
5.696e-05,-0.0332152
5.699e-05,-0.033186
5.702e-05,-0.0331732
5.706e-05,-0.0332088
5.709e-05,-0.0332216
5.712e-05,-0.0331183
5.715e-05,-0.0330013
5.718e-05,-0.0332975
5.722e-05,-0.0332051
5.725e-05,-0.0332664
5.728e-05,-0.033302
5.731e-05,-0.0319894
